"","participant","Language","SpecificLanguage","Response","Trial","Trialtype","accuracy","rt","Agegroup","Item","Context","accuracy01","Language_coded","Agegroup_coded","rawrt","condition"
"2",1,"L2","French","couteau",2,"nonswitch",1,7.46227237637255,"Younger","knife","Dual",1,0.5,-0.5,1741.1,"1nonswitchL2"
"7",1,"L2","French","avion",7,"nonswitch",1,6.82001636467413,"Younger","plane","Dual",1,0.5,-0.5,916,"1nonswitchL2"
"10",1,"L2","French","gateau",10,"nonswitch",1,7.4599147662411,"Younger","cake","Dual",1,0.5,-0.5,1737,"1nonswitchL2"
"13",1,"L2","French","journal",13,"nonswitch",1,6.90143535023732,"Younger","newspaper","Dual",1,0.5,-0.5,993.7,"1nonswitchL2"
"15",1,"L2","French","dents",17,"nonswitch",1,6.88561191429645,"Younger","teeth","Dual",1,0.5,-0.5,978.1,"1nonswitchL2"
"16",1,"L2","French","stylo",18,"nonswitch",1,6.86422127695841,"Younger","pen","Dual",1,0.5,-0.5,957.4,"1nonswitchL2"
"24",1,"L2","French","savon",28,"nonswitch",1,6.92667516383465,"Younger","soap","Dual",1,0.5,-0.5,1019.1,"1nonswitchL2"
"28",1,"L2","French","tasse",32,"nonswitch",1,6.92520219258586,"Younger","cup","Dual",1,0.5,-0.5,1017.6,"1nonswitchL2"
"35",1,"L2","French","cheval",39,"nonswitch",1,7.20452097016696,"Younger","horse","Dual",1,0.5,-0.5,1345.5,"1nonswitchL2"
"36",1,"L2","French","couteau",40,"nonswitch",1,7.23525884562059,"Younger","knife","Dual",1,0.5,-0.5,1387.5,"1nonswitchL2"
"43",1,"L2","French","bougie",48,"nonswitch",1,6.9432189432577,"Younger","candle","Dual",1,0.5,-0.5,1036.1,"1nonswitchL2"
"46",1,"L2","French","coupe",51,"nonswitch",1,7.3985414474104,"Younger","trophy","Dual",1,0.5,-0.5,1633.6,"1nonswitchL2"
"51",1,"L2","French","fraise",56,"nonswitch",1,7.26919883499597,"Younger","strawberry","Dual",1,0.5,-0.5,1435.4,"1nonswitchL2"
"57",1,"L2","French","oeil",62,"nonswitch",1,7.31754435857036,"Younger","eye","Dual",1,0.5,-0.5,1506.5,"1nonswitchL2"
"58",1,"L2","French","balai",63,"nonswitch",1,7.38622298664,"Younger","broom","Dual",1,0.5,-0.5,1613.6,"1nonswitchL2"
"59",1,"L2","French","cerveau",64,"nonswitch",1,7.03129946507359,"Younger","brain","Dual",1,0.5,-0.5,1131.5,"1nonswitchL2"
"68",1,"L2","French","manteau",75,"nonswitch",1,7.2627688435942,"Younger","coat","Dual",1,0.5,-0.5,1426.2,"1nonswitchL2"
"72",1,"L2","French","échelle",79,"nonswitch",1,7.22322273744185,"Younger","ladder","Dual",1,0.5,-0.5,1370.9,"1nonswitchL2"
"74",1,"L2","French","journal",82,"nonswitch",1,6.83744010506711,"Younger","newspaper","Dual",1,0.5,-0.5,932.1,"1nonswitchL2"
"82",1,"L2","French","manteau",90,"nonswitch",1,7.13409372119287,"Younger","coat","Dual",1,0.5,-0.5,1254,"1nonswitchL2"
"85",1,"L2","French","jouet",93,"nonswitch",1,7.25297486007502,"Younger","toy","Dual",1,0.5,-0.5,1412.3,"1nonswitchL2"
"89",1,"L2","French","valise",97,"nonswitch",1,7.12897698473365,"Younger","suitcase","Dual",1,0.5,-0.5,1247.6,"1nonswitchL2"
"90",1,"L2","French","cheval",98,"nonswitch",1,6.9370227766627,"Younger","horse","Dual",1,0.5,-0.5,1029.7,"1nonswitchL2"
"98",1,"L2","French","valise",108,"nonswitch",1,7.30545699647247,"Younger","suitcase","Dual",1,0.5,-0.5,1488.4,"1nonswitchL2"
"102",1,"L2","French","coupe",112,"nonswitch",1,7.17158001490335,"Younger","trophy","Dual",1,0.5,-0.5,1301.9,"1nonswitchL2"
"109",1,"L2","French","balai",119,"nonswitch",1,7.19997703147595,"Younger","broom","Dual",1,0.5,-0.5,1339.4,"1nonswitchL2"
"110",1,"L2","French","gateau",120,"nonswitch",1,7.19278383396835,"Younger","cake","Dual",1,0.5,-0.5,1329.8,"1nonswitchL2"
"117",1,"L2","French","fraise",128,"nonswitch",1,6.93371538065167,"Younger","strawberry","Dual",1,0.5,-0.5,1026.3,"1nonswitchL2"
"120",1,"L2","French","jouet",131,"nonswitch",1,7.43891280172005,"Younger","toy","Dual",1,0.5,-0.5,1700.9,"1nonswitchL2"
"125",1,"L2","French","cadeau",136,"nonswitch",1,7.1574239092357,"Younger","present","Dual",1,0.5,-0.5,1283.6,"1nonswitchL2"
"131",1,"L2","French","échelle",142,"nonswitch",1,7.1590585960902,"Younger","ladder","Dual",1,0.5,-0.5,1285.7,"1nonswitchL2"
"132",1,"L2","French","stylo",143,"nonswitch",1,6.69542802010178,"Younger","pen","Dual",1,0.5,-0.5,808.7,"1nonswitchL2"
"133",1,"L2","French","tasse",144,"nonswitch",1,7.01822273200811,"Younger","cup","Dual",1,0.5,-0.5,1116.8,"1nonswitchL2"
"136",1,"L2","French","avion",147,"nonswitch",1,6.80738230483535,"Younger","plane","Dual",1,0.5,-0.5,904.5,"1nonswitchL2"
"137",1,"L2","French","bougie",148,"nonswitch",1,6.89790694292732,"Younger","candle","Dual",1,0.5,-0.5,990.2,"1nonswitchL2"
"144",1,"L2","French","oeil",155,"nonswitch",1,7.21428363923028,"Younger","eye","Dual",1,0.5,-0.5,1358.7,"1nonswitchL2"
"148",1,"L2","French","dents",159,"nonswitch",1,6.89385917379003,"Younger","teeth","Dual",1,0.5,-0.5,986.2,"1nonswitchL2"
"3",1,"L1","English","coat",3,"switch",1,7.26696700257284,"Younger","coat","Dual",1,-0.5,-0.5,1432.2,"1switchL1"
"8",1,"L1","English","knife",8,"switch",1,7.07106389659416,"Younger","knife","Dual",1,-0.5,-0.5,1177.4,"1switchL1"
"11",1,"L1","English","teeth",11,"switch",1,7.15148546390474,"Younger","teeth","Dual",1,-0.5,-0.5,1276,"1switchL1"
"14",1,"L1","English","candle",14,"switch",1,7.09738341095853,"Younger","candle","Dual",1,-0.5,-0.5,1208.8,"1switchL1"
"17",1,"L1","English","cup",19,"switch",1,7.23864050873457,"Younger","cup","Dual",1,-0.5,-0.5,1392.2,"1switchL1"
"25",1,"L1","English","ladder",29,"switch",1,6.93779940033051,"Younger","ladder","Dual",1,-0.5,-0.5,1030.5,"1switchL1"
"29",1,"L1","English","pen",33,"switch",1,7.07326971745971,"Younger","pen","Dual",1,-0.5,-0.5,1180,"1switchL1"
"31",1,"L1","English","soap",35,"switch",1,6.99539978883418,"Younger","soap","Dual",1,-0.5,-0.5,1091.6,"1switchL1"
"39",1,"L1","English","plane",44,"switch",1,7.39578299407212,"Younger","plane","Dual",1,-0.5,-0.5,1629.1,"1switchL1"
"44",1,"L1","English","horse",49,"switch",1,6.89507522582476,"Younger","horse","Dual",1,-0.5,-0.5,987.4,"1switchL1"
"47",1,"L1","English","strawberry",52,"switch",1,7.1660342870646,"Younger","strawberry","Dual",1,-0.5,-0.5,1294.7,"1switchL1"
"52",1,"L1","English","present",57,"switch",1,7.19413650570087,"Younger","present","Dual",1,-0.5,-0.5,1331.6,"1switchL1"
"54",1,"L1","English","brain",59,"switch",1,7.15195557282196,"Younger","brain","Dual",1,-0.5,-0.5,1276.6,"1switchL1"
"60",1,"L1","English","toy",65,"switch",1,7.21096615305154,"Younger","toy","Dual",1,-0.5,-0.5,1354.2,"1switchL1"
"62",1,"L1","English","broom",69,"switch",1,7.31648172979267,"Younger","broom","Dual",1,-0.5,-0.5,1504.9,"1switchL1"
"65",1,"L1","English","newspaper",72,"switch",1,7.00206495845288,"Younger","newspaper","Dual",1,-0.5,-0.5,1098.9,"1switchL1"
"69",1,"L1","English","eye",76,"switch",1,7.0472563177597,"Younger","eye","Dual",1,-0.5,-0.5,1149.7,"1switchL1"
"73",1,"L1","English","trophy",80,"switch",1,7.11963563801764,"Younger","trophy","Dual",1,-0.5,-0.5,1236,"1switchL1"
"75",1,"L1","English","suitcase",83,"switch",1,7.19338524730779,"Younger","suitcase","Dual",1,-0.5,-0.5,1330.6,"1switchL1"
"80",1,"L1","English","broom",88,"switch",1,6.71889237414476,"Younger","broom","Dual",1,-0.5,-0.5,827.9,"1switchL1"
"83",1,"L1","English","pen",91,"switch",1,7.13910506684345,"Younger","pen","Dual",1,-0.5,-0.5,1260.3,"1switchL1"
"86",1,"L1","English","brain",94,"switch",1,6.97194999102413,"Younger","brain","Dual",1,-0.5,-0.5,1066.3,"1switchL1"
"93",1,"L1","English","coat",103,"switch",1,7.08439405264059,"Younger","coat","Dual",1,-0.5,-0.5,1193.2,"1switchL1"
"99",1,"L1","English","trophy",109,"switch",1,7.51768388079115,"Younger","trophy","Dual",1,-0.5,-0.5,1840.3,"1switchL1"
"103",1,"L1","English","knife",113,"switch",1,7.0404488207076,"Younger","knife","Dual",1,-0.5,-0.5,1141.9,"1switchL1"
"105",1,"L1","English","ladder",115,"switch",1,6.78694265876539,"Younger","ladder","Dual",1,-0.5,-0.5,886.2,"1switchL1"
"113",1,"L1","English","cup",124,"switch",1,7.27717861574304,"Younger","cup","Dual",1,-0.5,-0.5,1446.9,"1switchL1"
"118",1,"L1","English","toy",129,"switch",1,7.06595489365568,"Younger","toy","Dual",1,-0.5,-0.5,1171.4,"1switchL1"
"121",1,"L1","English","soap",132,"switch",1,7.07080906541843,"Younger","soap","Dual",1,-0.5,-0.5,1177.1,"1switchL1"
"126",1,"L1","English","teeth",137,"switch",1,7.07216741523252,"Younger","teeth","Dual",1,-0.5,-0.5,1178.7,"1switchL1"
"128",1,"L1","English","newspaper",139,"switch",1,7.27648724403408,"Younger","newspaper","Dual",1,-0.5,-0.5,1445.9,"1switchL1"
"134",1,"L1","English","strawberry",145,"switch",1,7.02161953513118,"Younger","strawberry","Dual",1,-0.5,-0.5,1120.6,"1switchL1"
"138",1,"L1","English","horse",149,"switch",1,7.00723855746709,"Younger","horse","Dual",1,-0.5,-0.5,1104.6,"1switchL1"
"141",1,"L1","English","cake",152,"switch",1,7.09323849911367,"Younger","cake","Dual",1,-0.5,-0.5,1203.8,"1switchL1"
"145",1,"L1","English","plane",156,"switch",1,7.03535662357586,"Younger","plane","Dual",1,-0.5,-0.5,1136.1,"1switchL1"
"149",1,"L1","English","eye",160,"switch",1,7.11045119502724,"Younger","eye","Dual",1,-0.5,-0.5,1224.7,"1switchL1"
"4",1,"L1","English","trophy",4,"nonswitch",1,7.09862354174456,"Younger","trophy","Dual",1,-0.5,-0.5,1210.3,"1nonswitchL1"
"5",1,"L1","English","candle",5,"nonswitch",1,7.37462901521894,"Younger","candle","Dual",1,-0.5,-0.5,1595,"1nonswitchL1"
"20",1,"L1","English","teeth",24,"nonswitch",1,6.98536425830912,"Younger","teeth","Dual",1,-0.5,-0.5,1080.7,"1nonswitchL1"
"21",1,"L1","English","cup",25,"nonswitch",1,6.99622392696975,"Younger","cup","Dual",1,-0.5,-0.5,1092.5,"1nonswitchL1"
"22",1,"L1","English","strawberry",26,"nonswitch",1,6.86807846182924,"Younger","strawberry","Dual",1,-0.5,-0.5,961.1,"1nonswitchL1"
"26",1,"L1","English","soap",30,"nonswitch",1,7.05038267723189,"Younger","soap","Dual",1,-0.5,-0.5,1153.3,"1nonswitchL1"
"32",1,"L1","English","horse",36,"nonswitch",1,7.11175678476798,"Younger","horse","Dual",1,-0.5,-0.5,1226.3,"1nonswitchL1"
"33",1,"L1","English","toy",37,"nonswitch",1,7.10233473317159,"Younger","toy","Dual",1,-0.5,-0.5,1214.8,"1nonswitchL1"
"37",1,"L1","English","coat",42,"nonswitch",1,6.99987856785794,"Younger","coat","Dual",1,-0.5,-0.5,1096.5,"1nonswitchL1"
"40",1,"L1","English","eye",45,"nonswitch",1,7.10422625888051,"Younger","eye","Dual",1,-0.5,-0.5,1217.1,"1nonswitchL1"
"41",1,"L1","English","pen",46,"nonswitch",1,7.17050408488871,"Younger","pen","Dual",1,-0.5,-0.5,1300.5,"1nonswitchL1"
"48",1,"L1","English","plane",53,"nonswitch",1,7.1596806317218,"Younger","plane","Dual",1,-0.5,-0.5,1286.5,"1nonswitchL1"
"49",1,"L1","English","newspaper",54,"nonswitch",1,7.27337014249034,"Younger","newspaper","Dual",1,-0.5,-0.5,1441.4,"1nonswitchL1"
"55",1,"L1","English","ladder",60,"nonswitch",1,6.97746789139344,"Younger","ladder","Dual",1,-0.5,-0.5,1072.2,"1nonswitchL1"
"63",1,"L1","English","present",70,"nonswitch",1,7.12504171081195,"Younger","present","Dual",1,-0.5,-0.5,1242.7,"1nonswitchL1"
"66",1,"L1","English","suitcase",73,"nonswitch",1,7.12181772156015,"Younger","suitcase","Dual",1,-0.5,-0.5,1238.7,"1nonswitchL1"
"70",1,"L1","English","broom",77,"nonswitch",1,6.9483212407288,"Younger","broom","Dual",1,-0.5,-0.5,1041.4,"1nonswitchL1"
"76",1,"L1","English","coat",84,"nonswitch",1,7.33706711356458,"Younger","coat","Dual",1,-0.5,-0.5,1536.2,"1nonswitchL1"
"77",1,"L1","English","cup",85,"nonswitch",1,7.33778290991855,"Younger","cup","Dual",1,-0.5,-0.5,1537.3,"1nonswitchL1"
"87",1,"L1","English","teeth",95,"nonswitch",1,7.06339057051359,"Younger","teeth","Dual",1,-0.5,-0.5,1168.4,"1nonswitchL1"
"91",1,"L1","English","strawberry",101,"nonswitch",1,6.90143535023732,"Younger","strawberry","Dual",1,-0.5,-0.5,993.7,"1nonswitchL1"
"94",1,"L1","English","plane",104,"nonswitch",1,6.9925558806746,"Younger","plane","Dual",1,-0.5,-0.5,1088.5,"1nonswitchL1"
"95",1,"L1","English","eye",105,"nonswitch",1,7.3834302954651,"Younger","eye","Dual",1,-0.5,-0.5,1609.1,"1nonswitchL1"
"96",1,"L1","English","candle",106,"nonswitch",1,7.12310856482128,"Younger","candle","Dual",1,-0.5,-0.5,1240.3,"1nonswitchL1"
"106",1,"L1","English","brain",116,"nonswitch",1,7.1078348906978,"Younger","brain","Dual",1,-0.5,-0.5,1221.5,"1nonswitchL1"
"107",1,"L1","English","cake",117,"nonswitch",1,7.01553287115557,"Younger","cake","Dual",1,-0.5,-0.5,1113.8,"1nonswitchL1"
"114",1,"L1","English","pen",125,"nonswitch",1,6.90815519900346,"Younger","pen","Dual",1,-0.5,-0.5,1000.4,"1nonswitchL1"
"115",1,"L1","English","toy",126,"nonswitch",1,7.41721997710879,"Younger","toy","Dual",1,-0.5,-0.5,1664.4,"1nonswitchL1"
"122",1,"L1","English","knife",133,"nonswitch",1,7.03271251838652,"Younger","knife","Dual",1,-0.5,-0.5,1133.1,"1nonswitchL1"
"123",1,"L1","English","trophy",134,"nonswitch",1,7.08481300610099,"Younger","trophy","Dual",1,-0.5,-0.5,1193.7,"1nonswitchL1"
"129",1,"L1","English","horse",140,"nonswitch",1,7.07479397891157,"Younger","horse","Dual",1,-0.5,-0.5,1181.8,"1nonswitchL1"
"139",1,"L1","English","soap",150,"nonswitch",1,6.93264299448992,"Younger","soap","Dual",1,-0.5,-0.5,1025.2,"1nonswitchL1"
"142",1,"L1","English","suitcase",153,"nonswitch",1,7.2949885254955,"Younger","suitcase","Dual",1,-0.5,-0.5,1472.9,"1nonswitchL1"
"146",1,"L1","English","present",157,"nonswitch",1,7.187883895779,"Younger","present","Dual",1,-0.5,-0.5,1323.3,"1nonswitchL1"
"6",1,"L2","French","jouet",6,"switch",1,6.96847401401684,"Younger","toy","Dual",1,0.5,-0.5,1062.6,"1switchL2"
"9",1,"L2","French","tasse",9,"switch",1,6.970072585047,"Younger","cup","Dual",1,0.5,-0.5,1064.3,"1switchL2"
"12",1,"L2","French","échelle",12,"switch",1,7.25700270709207,"Younger","ladder","Dual",1,0.5,-0.5,1418,"1switchL2"
"18",1,"L2","French","cerveau",22,"switch",1,6.87181717217651,"Younger","brain","Dual",1,0.5,-0.5,964.7,"1switchL2"
"23",1,"L2","French","stylo",27,"switch",1,6.73506717115642,"Younger","pen","Dual",1,0.5,-0.5,841.4,"1switchL2"
"27",1,"L2","French","fraise",31,"switch",1,7.11428152447291,"Younger","strawberry","Dual",1,0.5,-0.5,1229.4,"1switchL2"
"30",1,"L2","French","valise",34,"switch",1,7.35410637956264,"Younger","suitcase","Dual",1,0.5,-0.5,1562.6,"1switchL2"
"38",1,"L2","French","cheval",43,"switch",1,6.95129358099662,"Younger","horse","Dual",1,0.5,-0.5,1044.5,"1switchL2"
"42",1,"L2","French","savon",47,"switch",1,6.94080313302834,"Younger","soap","Dual",1,0.5,-0.5,1033.6,"1switchL2"
"45",1,"L2","French","cadeau",50,"switch",1,7.49181277695438,"Younger","present","Dual",1,0.5,-0.5,1793.3,"1switchL2"
"50",1,"L2","French","bougie",55,"switch",1,6.9931987607996,"Younger","candle","Dual",1,0.5,-0.5,1089.2,"1switchL2"
"53",1,"L2","French","avion",58,"switch",1,6.83582953941055,"Younger","plane","Dual",1,0.5,-0.5,930.6,"1switchL2"
"56",1,"L2","French","manteau",61,"switch",1,7.05652005224725,"Younger","coat","Dual",1,0.5,-0.5,1160.4,"1switchL2"
"61",1,"L2","French","dents",66,"switch",1,6.89345349427128,"Younger","teeth","Dual",1,0.5,-0.5,985.8,"1switchL2"
"64",1,"L2","French","coupe",71,"switch",1,7.13473147631652,"Younger","trophy","Dual",1,0.5,-0.5,1254.8,"1switchL2"
"67",1,"L2","French","couteau",74,"switch",1,7.23605132431917,"Younger","knife","Dual",1,0.5,-0.5,1388.6,"1switchL2"
"71",1,"L2","French","journal",78,"switch",1,6.9945749709347,"Younger","newspaper","Dual",1,0.5,-0.5,1090.7,"1switchL2"
"78",1,"L2","French","stylo",86,"switch",1,6.76619171466035,"Younger","pen","Dual",1,0.5,-0.5,868,"1switchL2"
"81",1,"L2","French","dents",89,"switch",1,6.88469133938359,"Younger","teeth","Dual",1,0.5,-0.5,977.2,"1switchL2"
"84",1,"L2","French","tasse",92,"switch",1,7.20325670048605,"Younger","cup","Dual",1,0.5,-0.5,1343.8,"1switchL2"
"88",1,"L2","French","coupe",96,"switch",1,7.17349844391516,"Younger","trophy","Dual",1,0.5,-0.5,1304.4,"1switchL2"
"92",1,"L2","French","échelle",102,"switch",1,7.04385836197448,"Younger","ladder","Dual",1,0.5,-0.5,1145.8,"1switchL2"
"97",1,"L2","French","manteau",107,"switch",1,7.099284316527,"Younger","coat","Dual",1,0.5,-0.5,1211.1,"1switchL2"
"101",1,"L2","French","cadeau",111,"switch",1,7.74118600498914,"Younger","present","Dual",1,0.5,-0.5,2301.2,"1switchL2"
"104",1,"L2","French","journal",114,"switch",1,6.83947643822884,"Younger","newspaper","Dual",1,0.5,-0.5,934,"1switchL2"
"108",1,"L2","French","valise",118,"switch",1,7.07665381544395,"Younger","suitcase","Dual",1,0.5,-0.5,1184,"1switchL2"
"112",1,"L2","French","fraise",123,"switch",1,7.1547715947079,"Younger","strawberry","Dual",1,0.5,-0.5,1280.2,"1switchL2"
"116",1,"L2","French","savon",127,"switch",1,6.92667516383465,"Younger","soap","Dual",1,0.5,-0.5,1019.1,"1switchL2"
"119",1,"L2","French","avion",130,"switch",1,7.02161953513118,"Younger","plane","Dual",1,0.5,-0.5,1120.6,"1switchL2"
"124",1,"L2","French","gateau",135,"switch",1,6.99732172234118,"Younger","cake","Dual",1,0.5,-0.5,1093.7,"1switchL2"
"127",1,"L2","French","cheval",138,"switch",1,7.19908070634872,"Younger","horse","Dual",1,0.5,-0.5,1338.2,"1switchL2"
"130",1,"L2","French","couteau",141,"switch",1,7.53069456449859,"Younger","knife","Dual",1,0.5,-0.5,1864.4,"1switchL2"
"135",1,"L2","French","cerveau",146,"switch",1,7.36821349538434,"Younger","brain","Dual",1,0.5,-0.5,1584.8,"1switchL2"
"140",1,"L2","French","bougie",151,"switch",1,6.89931980016104,"Younger","candle","Dual",1,0.5,-0.5,991.6,"1switchL2"
"143",1,"L2","French","jouet",154,"switch",1,7.3093462255417,"Younger","toy","Dual",1,0.5,-0.5,1494.2,"1switchL2"
"147",1,"L2","French","balai",158,"switch",1,7.40707496256193,"Younger","broom","Dual",1,0.5,-0.5,1647.6,"1switchL2"
"150",1,"L1","English","broom",1,"SingleNaming",1,6.64026791381588,"Younger","broom","Single",1,-0.5,-0.5,765.3,"1SingleNamingL1"
"152",1,"L1","English","candle",2,"SingleNaming",1,6.66377106179608,"Younger","candle","Single",1,-0.5,-0.5,783.5,"1SingleNamingL1"
"154",1,"L1","English","suitcase",3,"SingleNaming",1,6.61619904498176,"Younger","suitcase","Single",1,-0.5,-0.5,747.1,"1SingleNamingL1"
"156",1,"L1","English","horse",4,"SingleNaming",1,6.83744010506711,"Younger","horse","Single",1,-0.5,-0.5,932.1,"1SingleNamingL1"
"158",1,"L1","English","soap",5,"SingleNaming",1,6.61136876590021,"Younger","soap","Single",1,-0.5,-0.5,743.5,"1SingleNamingL1"
"160",1,"L1","English","pen",6,"SingleNaming",1,6.92500563238866,"Younger","pen","Single",1,-0.5,-0.5,1017.4,"1SingleNamingL1"
"162",1,"L1","English","newspaper",7,"SingleNaming",1,6.80716116374643,"Younger","newspaper","Single",1,-0.5,-0.5,904.3,"1SingleNamingL1"
"164",1,"L1","English","cup",8,"SingleNaming",1,6.64391993300464,"Younger","cup","Single",1,-0.5,-0.5,768.1,"1SingleNamingL1"
"167",1,"L1","English","knife",9,"SingleNaming",1,6.64600082854027,"Younger","knife","Single",1,-0.5,-0.5,769.7,"1SingleNamingL1"
"169",1,"L1","English","coat",10,"SingleNaming",1,6.98341918290313,"Younger","coat","Single",1,-0.5,-0.5,1078.6,"1SingleNamingL1"
"171",1,"L1","English","strawberry",11,"SingleNaming",1,6.9987835773297,"Younger","strawberry","Single",1,-0.5,-0.5,1095.3,"1SingleNamingL1"
"172",1,"L1","English","trophy",12,"SingleNaming",1,6.97363664809565,"Younger","trophy","Single",1,-0.5,-0.5,1068.1,"1SingleNamingL1"
"175",1,"L1","English","eye",13,"SingleNaming",1,6.9085549591527,"Younger","eye","Single",1,-0.5,-0.5,1000.8,"1SingleNamingL1"
"176",1,"L1","English","cake",14,"SingleNaming",1,6.69158734140435,"Younger","cake","Single",1,-0.5,-0.5,805.6,"1SingleNamingL1"
"178",1,"L1","English","teeth",15,"SingleNaming",1,6.63028752893733,"Younger","teeth","Single",1,-0.5,-0.5,757.7,"1SingleNamingL1"
"180",1,"L1","English","present",16,"SingleNaming",1,6.51767127291227,"Younger","present","Single",1,-0.5,-0.5,677,"1SingleNamingL1"
"182",1,"L1","English","brain",17,"SingleNaming",1,6.56202027508174,"Younger","brain","Single",1,-0.5,-0.5,707.7,"1SingleNamingL1"
"184",1,"L1","English","toy",18,"SingleNaming",1,6.62724741027836,"Younger","toy","Single",1,-0.5,-0.5,755.4,"1SingleNamingL1"
"186",1,"L1","English","ladder",19,"SingleNaming",1,6.79335401867216,"Younger","ladder","Single",1,-0.5,-0.5,891.9,"1SingleNamingL1"
"188",1,"L1","English","plane",20,"SingleNaming",1,7.08128832974301,"Younger","plane","Single",1,-0.5,-0.5,1189.5,"1SingleNamingL1"
"189",1,"L1","English","teeth",21,"SingleNaming",1,6.90334557049344,"Younger","teeth","Single",1,-0.5,-0.5,995.6,"1SingleNamingL1"
"191",1,"L1","English","coat",22,"SingleNaming",1,6.41050377524326,"Younger","coat","Single",1,-0.5,-0.5,608.2,"1SingleNamingL1"
"193",1,"L1","English","cake",23,"SingleNaming",1,6.45315244631242,"Younger","cake","Single",1,-0.5,-0.5,634.7,"1SingleNamingL1"
"195",1,"L1","English","toy",24,"SingleNaming",1,6.819798000223,"Younger","toy","Single",1,-0.5,-0.5,915.8,"1SingleNamingL1"
"197",1,"L1","English","strawberry",25,"SingleNaming",1,6.42243494562451,"Younger","strawberry","Single",1,-0.5,-0.5,615.5,"1SingleNamingL1"
"199",1,"L1","English","plane",26,"SingleNaming",1,6.76168850284735,"Younger","plane","Single",1,-0.5,-0.5,864.1,"1SingleNamingL1"
"201",1,"L1","English","knife",27,"SingleNaming",1,6.68060370627039,"Younger","knife","Single",1,-0.5,-0.5,796.8,"1SingleNamingL1"
"203",1,"L1","English","suitcase",28,"SingleNaming",1,6.65890923031555,"Younger","suitcase","Single",1,-0.5,-0.5,779.7,"1SingleNamingL1"
"206",1,"L1","English","trophy",29,"SingleNaming",1,7.00615160083833,"Younger","trophy","Single",1,-0.5,-0.5,1103.4,"1SingleNamingL1"
"207",1,"L1","English","ladder",30,"SingleNaming",1,6.61485963947747,"Younger","ladder","Single",1,-0.5,-0.5,746.1,"1SingleNamingL1"
"209",1,"L1","English","eye",31,"SingleNaming",1,6.92382545915963,"Younger","eye","Single",1,-0.5,-0.5,1016.2,"1SingleNamingL1"
"211",1,"L1","English","newspaper",32,"SingleNaming",1,6.76699784126587,"Younger","newspaper","Single",1,-0.5,-0.5,868.7,"1SingleNamingL1"
"214",1,"L1","English","candle",33,"SingleNaming",1,6.95129358099662,"Younger","candle","Single",1,-0.5,-0.5,1044.5,"1SingleNamingL1"
"215",1,"L1","English","present",34,"SingleNaming",1,7.08749015987932,"Younger","present","Single",1,-0.5,-0.5,1196.9,"1SingleNamingL1"
"217",1,"L1","English","horse",35,"SingleNaming",1,6.65890923031555,"Younger","horse","Single",1,-0.5,-0.5,779.7,"1SingleNamingL1"
"219",1,"L1","English","brain",36,"SingleNaming",1,6.89962229575195,"Younger","brain","Single",1,-0.5,-0.5,991.9,"1SingleNamingL1"
"221",1,"L1","English","cup",37,"SingleNaming",1,6.88305266634177,"Younger","cup","Single",1,-0.5,-0.5,975.6,"1SingleNamingL1"
"223",1,"L1","English","pen",38,"SingleNaming",1,6.62446355483165,"Younger","pen","Single",1,-0.5,-0.5,753.3,"1SingleNamingL1"
"225",1,"L1","English","soap",39,"SingleNaming",1,6.61109973173125,"Younger","soap","Single",1,-0.5,-0.5,743.3,"1SingleNamingL1"
"227",1,"L1","English","broom",40,"SingleNaming",1,6.77262260499064,"Younger","broom","Single",1,-0.5,-0.5,873.6,"1SingleNamingL1"
"151",1,"L2","French","dents",1,"SingleNaming",1,6.72335155598386,"Younger","teeth","Single",1,0.5,-0.5,831.6,"1SingleNamingL2"
"153",1,"L2","French","fraise",2,"SingleNaming",1,6.74793857752825,"Younger","strawberry","Single",1,0.5,-0.5,852.3,"1SingleNamingL2"
"155",1,"L2","French","tasse",3,"SingleNaming",1,6.66479160021862,"Younger","cup","Single",1,0.5,-0.5,784.3,"1SingleNamingL2"
"157",1,"L2","French","balai",4,"SingleNaming",1,7.0095895848634,"Younger","broom","Single",1,0.5,-0.5,1107.2,"1SingleNamingL2"
"159",1,"L2","French","oeil",5,"SingleNaming",1,6.88836856518195,"Younger","eye","Single",1,0.5,-0.5,980.8,"1SingleNamingL2"
"161",1,"L2","French","cadeau",6,"SingleNaming",1,7.53219526153229,"Younger","present","Single",1,0.5,-0.5,1867.2,"1SingleNamingL2"
"163",1,"L2","French","valise",7,"SingleNaming",1,7.28447791822465,"Younger","suitcase","Single",1,0.5,-0.5,1457.5,"1SingleNamingL2"
"165",1,"L2","French","bougie",8,"SingleNaming",1,6.78502251359984,"Younger","candle","Single",1,0.5,-0.5,884.5,"1SingleNamingL2"
"166",1,"L2","French","stylo",9,"SingleNaming",1,6.60881001425165,"Younger","pen","Single",1,0.5,-0.5,741.6,"1SingleNamingL2"
"168",1,"L2","French","jouet",10,"SingleNaming",1,6.35888158757862,"Younger","toy","Single",1,0.5,-0.5,577.6,"1SingleNamingL2"
"170",1,"L2","French","cheval",11,"SingleNaming",1,6.79043463640559,"Younger","horse","Single",1,0.5,-0.5,889.3,"1SingleNamingL2"
"173",1,"L2","French","manteau",12,"SingleNaming",1,7.11728660287648,"Younger","coat","Single",1,0.5,-0.5,1233.1,"1SingleNamingL2"
"174",1,"L2","French","avion",13,"SingleNaming",1,6.7854746442733,"Younger","plane","Single",1,0.5,-0.5,884.9,"1SingleNamingL2"
"177",1,"L2","French","gateau",14,"SingleNaming",1,7.30256380690177,"Younger","cake","Single",1,0.5,-0.5,1484.1,"1SingleNamingL2"
"179",1,"L2","French","échelle",15,"SingleNaming",1,6.97138713922691,"Younger","ladder","Single",1,0.5,-0.5,1065.7,"1SingleNamingL2"
"181",1,"L2","French","couteau",16,"SingleNaming",1,7.3693486408679,"Younger","knife","Single",1,0.5,-0.5,1586.6,"1SingleNamingL2"
"183",1,"L2","French","savon",17,"SingleNaming",1,6.79693544387689,"Younger","soap","Single",1,0.5,-0.5,895.1,"1SingleNamingL2"
"185",1,"L2","French","journal",18,"SingleNaming",1,6.73399695284867,"Younger","newspaper","Single",1,0.5,-0.5,840.5,"1SingleNamingL2"
"187",1,"L2","French","cerveau",19,"SingleNaming",1,6.94283280559483,"Younger","brain","Single",1,0.5,-0.5,1035.7,"1SingleNamingL2"
"190",1,"L2","French","couteau",21,"SingleNaming",1,7.16649760753621,"Younger","knife","Single",1,0.5,-0.5,1295.3,"1SingleNamingL2"
"192",1,"L2","French","fraise",22,"SingleNaming",1,6.92667516383465,"Younger","strawberry","Single",1,0.5,-0.5,1019.1,"1SingleNamingL2"
"194",1,"L2","French","tasse",23,"SingleNaming",1,7.17816402276346,"Younger","cup","Single",1,0.5,-0.5,1310.5,"1SingleNamingL2"
"196",1,"L2","French","cerveau",24,"SingleNaming",1,6.86045400586412,"Younger","brain","Single",1,0.5,-0.5,953.8,"1SingleNamingL2"
"198",1,"L2","French","oeil",25,"SingleNaming",1,6.98137741885275,"Younger","eye","Single",1,0.5,-0.5,1076.4,"1SingleNamingL2"
"200",1,"L2","French","échelle",26,"SingleNaming",1,7.09630738552673,"Younger","ladder","Single",1,0.5,-0.5,1207.5,"1SingleNamingL2"
"202",1,"L2","French","valise",27,"SingleNaming",1,7.4522864352133,"Younger","suitcase","Single",1,0.5,-0.5,1723.8,"1SingleNamingL2"
"204",1,"L2","French","dents",28,"SingleNaming",1,7.00006094976616,"Younger","teeth","Single",1,0.5,-0.5,1096.7,"1SingleNamingL2"
"205",1,"L2","French","stylo",29,"SingleNaming",1,6.58160954007823,"Younger","pen","Single",1,0.5,-0.5,721.7,"1SingleNamingL2"
"208",1,"L2","French","jouet",30,"SingleNaming",1,6.78682981105326,"Younger","toy","Single",1,0.5,-0.5,886.1,"1SingleNamingL2"
"210",1,"L2","French","cheval",31,"SingleNaming",1,7.02224400546683,"Younger","horse","Single",1,0.5,-0.5,1121.3,"1SingleNamingL2"
"212",1,"L2","French","manteau",32,"SingleNaming",1,6.93371538065167,"Younger","coat","Single",1,0.5,-0.5,1026.3,"1SingleNamingL2"
"213",1,"L2","French","avion",33,"SingleNaming",1,6.90875477931522,"Younger","plane","Single",1,0.5,-0.5,1001,"1SingleNamingL2"
"216",1,"L2","French","gateau",34,"SingleNaming",1,7.30981459395547,"Younger","cake","Single",1,0.5,-0.5,1494.9,"1SingleNamingL2"
"218",1,"L2","French","bougie",35,"SingleNaming",1,6.92608623566686,"Younger","candle","Single",1,0.5,-0.5,1018.5,"1SingleNamingL2"
"222",1,"L2","French","savon",37,"SingleNaming",1,7.05038267723189,"Younger","soap","Single",1,0.5,-0.5,1153.3,"1SingleNamingL2"
"224",1,"L2","French","journal",38,"SingleNaming",1,6.82165257992873,"Younger","newspaper","Single",1,0.5,-0.5,917.5,"1SingleNamingL2"
"226",1,"L2","French","cadeau",39,"SingleNaming",1,7.51920421555758,"Younger","present","Single",1,0.5,-0.5,1843.1,"1SingleNamingL2"
"228",1,"L2","French","coupe",40,"SingleNaming",1,7.63191651307125,"Younger","trophy","Single",1,0.5,-0.5,2063,"1SingleNamingL2"
"245",2,"L2","French","couteau",2,"nonswitch",1,7.63646263494063,"Younger","knife","Dual",1,0.5,-0.5,2072.4,"2nonswitchL2"
"250",2,"L2","French","avion",7,"nonswitch",1,6.95492508345853,"Younger","plane","Dual",1,0.5,-0.5,1048.3,"2nonswitchL2"
"253",2,"L2","French","gateau",10,"nonswitch",1,7.08732304757947,"Younger","cake","Dual",1,0.5,-0.5,1196.7,"2nonswitchL2"
"256",2,"L2","French","journal",13,"nonswitch",1,7.26912916557733,"Younger","newspaper","Dual",1,0.5,-0.5,1435.3,"2nonswitchL2"
"260",2,"L2","French","dents",17,"nonswitch",1,7.49264887410183,"Younger","teeth","Dual",1,0.5,-0.5,1794.8,"2nonswitchL2"
"261",2,"L2","French","stylo",18,"nonswitch",1,7.11801620446533,"Younger","pen","Dual",1,0.5,-0.5,1234,"2nonswitchL2"
"271",2,"L2","French","savon",28,"nonswitch",1,7.44208256253322,"Younger","soap","Dual",1,0.5,-0.5,1706.3,"2nonswitchL2"
"275",2,"L2","French","tasse",32,"nonswitch",1,7.93200315236138,"Younger","cup","Dual",1,0.5,-0.5,2785,"2nonswitchL2"
"280",2,"L2","French","cheval",39,"nonswitch",1,6.92382545915963,"Younger","horse","Dual",1,0.5,-0.5,1016.2,"2nonswitchL2"
"281",2,"L2","French","couteau",40,"nonswitch",1,7.9251575122247,"Younger","knife","Dual",1,0.5,-0.5,2766,"2nonswitchL2"
"286",2,"L2","French","bougie",48,"nonswitch",1,7.71877438013697,"Younger","candle","Dual",1,0.5,-0.5,2250.2,"2nonswitchL2"
"292",2,"L2","French","fraise",56,"nonswitch",1,7.01427512235981,"Younger","strawberry","Dual",1,0.5,-0.5,1112.4,"2nonswitchL2"
"298",2,"L2","French","oeil",62,"nonswitch",1,7.24308400490127,"Younger","eye","Dual",1,0.5,-0.5,1398.4,"2nonswitchL2"
"299",2,"L2","French","balai",63,"nonswitch",1,7.63201345456713,"Younger","broom","Dual",1,0.5,-0.5,2063.2,"2nonswitchL2"
"300",2,"L2","French","cerveau",64,"nonswitch",1,7.39786786115059,"Younger","brain","Dual",1,0.5,-0.5,1632.5,"2nonswitchL2"
"303",2,"L2","French","cadeau",67,"nonswitch",1,7.73853169453012,"Younger","present","Dual",1,0.5,-0.5,2295.1,"2nonswitchL2"
"304",2,"L2","French","cerveau",68,"nonswitch",1,7.90871798691349,"Younger","brain","Dual",1,0.5,-0.5,2720.9,"2nonswitchL2"
"311",2,"L2","French","manteau",75,"nonswitch",1,7.21993482303431,"Younger","coat","Dual",1,0.5,-0.5,1366.4,"2nonswitchL2"
"315",2,"L2","French","échelle",79,"nonswitch",1,7.13385445812198,"Younger","ladder","Dual",1,0.5,-0.5,1253.7,"2nonswitchL2"
"317",2,"L2","French","journal",82,"nonswitch",1,6.54333614030997,"Younger","newspaper","Dual",1,0.5,-0.5,694.6,"2nonswitchL2"
"322",2,"L2","French","savon",87,"nonswitch",1,7.45512495992874,"Younger","soap","Dual",1,0.5,-0.5,1728.7,"2nonswitchL2"
"325",2,"L2","French","manteau",90,"nonswitch",1,7.01875983702505,"Younger","coat","Dual",1,0.5,-0.5,1117.4,"2nonswitchL2"
"328",2,"L2","French","jouet",93,"nonswitch",1,7.10249935577465,"Younger","toy","Dual",1,0.5,-0.5,1215,"2nonswitchL2"
"332",2,"L2","French","valise",97,"nonswitch",1,7.79901534113105,"Younger","suitcase","Dual",1,0.5,-0.5,2438.2,"2nonswitchL2"
"333",2,"L2","French","cheval",98,"nonswitch",1,6.69950034016168,"Younger","horse","Dual",1,0.5,-0.5,812,"2nonswitchL2"
"345",2,"L2","French","coupe",112,"nonswitch",1,7.0234027025081,"Younger","trophy","Dual",1,0.5,-0.5,1122.6,"2nonswitchL2"
"352",2,"L2","French","balai",119,"nonswitch",1,7.78259882094212,"Younger","broom","Dual",1,0.5,-0.5,2398.5,"2nonswitchL2"
"353",2,"L2","French","gateau",120,"nonswitch",1,6.99814427870982,"Younger","cake","Dual",1,0.5,-0.5,1094.6,"2nonswitchL2"
"360",2,"L2","French","fraise",128,"nonswitch",1,6.65582637623617,"Younger","strawberry","Dual",1,0.5,-0.5,777.3,"2nonswitchL2"
"363",2,"L2","French","jouet",131,"nonswitch",1,6.88591858437296,"Younger","toy","Dual",1,0.5,-0.5,978.4,"2nonswitchL2"
"368",2,"L2","French","cadeau",136,"nonswitch",1,7.80917599818956,"Younger","present","Dual",1,0.5,-0.5,2463.1,"2nonswitchL2"
"374",2,"L2","French","échelle",142,"nonswitch",1,7.01409531475346,"Younger","ladder","Dual",1,0.5,-0.5,1112.2,"2nonswitchL2"
"375",2,"L2","French","stylo",143,"nonswitch",1,6.80859770744892,"Younger","pen","Dual",1,0.5,-0.5,905.6,"2nonswitchL2"
"376",2,"L2","French","tasse",144,"nonswitch",1,7.76131918094799,"Younger","cup","Dual",1,0.5,-0.5,2348,"2nonswitchL2"
"379",2,"L2","French","avion",147,"nonswitch",1,6.80594401283545,"Younger","plane","Dual",1,0.5,-0.5,903.2,"2nonswitchL2"
"380",2,"L2","French","bougie",148,"nonswitch",1,7.61893882202818,"Younger","candle","Dual",1,0.5,-0.5,2036.4,"2nonswitchL2"
"387",2,"L2","French","oeil",155,"nonswitch",1,7.22933140308147,"Younger","eye","Dual",1,0.5,-0.5,1379.3,"2nonswitchL2"
"391",2,"L2","French","dents",159,"nonswitch",1,6.9964069765767,"Younger","teeth","Dual",1,0.5,-0.5,1092.7,"2nonswitchL2"
"246",2,"L1","English","coat",3,"switch",1,6.92608623566686,"Younger","coat","Dual",1,-0.5,-0.5,1018.5,"2switchL1"
"251",2,"L1","English","knife",8,"switch",1,6.98054094870778,"Younger","knife","Dual",1,-0.5,-0.5,1075.5,"2switchL1"
"254",2,"L1","English","teeth",11,"switch",1,7.16069061510408,"Younger","teeth","Dual",1,-0.5,-0.5,1287.8,"2switchL1"
"257",2,"L1","English","candle",14,"switch",1,6.74605953998184,"Younger","candle","Dual",1,-0.5,-0.5,850.7,"2switchL1"
"262",2,"L1","English","cup",19,"switch",1,6.92530045819789,"Younger","cup","Dual",1,-0.5,-0.5,1017.7,"2switchL1"
"266",2,"L1","English","suitcase",23,"switch",1,6.89162589705225,"Younger","suitcase","Dual",1,-0.5,-0.5,984,"2switchL1"
"272",2,"L1","English","ladder",29,"switch",1,6.90465046402866,"Younger","ladder","Dual",1,-0.5,-0.5,996.9,"2switchL1"
"276",2,"L1","English","pen",33,"switch",1,7.18333946623578,"Younger","pen","Dual",1,-0.5,-0.5,1317.3,"2switchL1"
"287",2,"L1","English","horse",49,"switch",1,6.97288737391992,"Younger","horse","Dual",1,-0.5,-0.5,1067.3,"2switchL1"
"288",2,"L1","English","strawberry",52,"switch",1,7.08690514461046,"Younger","strawberry","Dual",1,-0.5,-0.5,1196.2,"2switchL1"
"293",2,"L1","English","present",57,"switch",1,6.91829949285781,"Younger","present","Dual",1,-0.5,-0.5,1010.6,"2switchL1"
"295",2,"L1","English","brain",59,"switch",1,6.73850788167545,"Younger","brain","Dual",1,-0.5,-0.5,844.3,"2switchL1"
"301",2,"L1","English","toy",65,"switch",1,6.83701087445638,"Younger","toy","Dual",1,-0.5,-0.5,931.7,"2switchL1"
"305",2,"L1","English","broom",69,"switch",1,7.05789793741186,"Younger","broom","Dual",1,-0.5,-0.5,1162,"2switchL1"
"308",2,"L1","English","newspaper",72,"switch",1,6.54721573422697,"Younger","newspaper","Dual",1,-0.5,-0.5,697.3,"2switchL1"
"312",2,"L1","English","eye",76,"switch",1,6.93176473144249,"Younger","eye","Dual",1,-0.5,-0.5,1024.3,"2switchL1"
"316",2,"L1","English","trophy",80,"switch",1,6.7751377543673,"Younger","trophy","Dual",1,-0.5,-0.5,875.8,"2switchL1"
"318",2,"L1","English","suitcase",83,"switch",1,6.6678469813352,"Younger","suitcase","Dual",1,-0.5,-0.5,786.7,"2switchL1"
"323",2,"L1","English","broom",88,"switch",1,6.85033800811219,"Younger","broom","Dual",1,-0.5,-0.5,944.2,"2switchL1"
"326",2,"L1","English","pen",91,"switch",1,6.98850542866725,"Younger","pen","Dual",1,-0.5,-0.5,1084.1,"2switchL1"
"329",2,"L1","English","brain",94,"switch",1,7.09190849060506,"Younger","brain","Dual",1,-0.5,-0.5,1202.2,"2switchL1"
"334",2,"L1","English","present",99,"switch",1,6.96470255942389,"Younger","present","Dual",1,-0.5,-0.5,1058.6,"2switchL1"
"338",2,"L1","English","coat",103,"switch",1,6.98675128520864,"Younger","coat","Dual",1,-0.5,-0.5,1082.2,"2switchL1"
"346",2,"L1","English","knife",113,"switch",1,7.0462990884302,"Younger","knife","Dual",1,-0.5,-0.5,1148.6,"2switchL1"
"348",2,"L1","English","ladder",115,"switch",1,6.48035126335522,"Younger","ladder","Dual",1,-0.5,-0.5,652.2,"2switchL1"
"356",2,"L1","English","cup",124,"switch",1,6.87595496643234,"Younger","cup","Dual",1,-0.5,-0.5,968.7,"2switchL1"
"361",2,"L1","English","toy",129,"switch",1,6.58091649132916,"Younger","toy","Dual",1,-0.5,-0.5,721.2,"2switchL1"
"364",2,"L1","English","soap",132,"switch",1,6.92215115926587,"Younger","soap","Dual",1,-0.5,-0.5,1014.5,"2switchL1"
"369",2,"L1","English","teeth",137,"switch",1,7.0333301018902,"Younger","teeth","Dual",1,-0.5,-0.5,1133.8,"2switchL1"
"371",2,"L1","English","newspaper",139,"switch",1,6.768033335807,"Younger","newspaper","Dual",1,-0.5,-0.5,869.6,"2switchL1"
"377",2,"L1","English","strawberry",145,"switch",1,6.80815591375938,"Younger","strawberry","Dual",1,-0.5,-0.5,905.2,"2switchL1"
"381",2,"L1","English","horse",149,"switch",1,6.84054652928869,"Younger","horse","Dual",1,-0.5,-0.5,935,"2switchL1"
"384",2,"L1","English","cake",152,"switch",1,7.30033776125929,"Younger","cake","Dual",1,-0.5,-0.5,1480.8,"2switchL1"
"388",2,"L1","English","plane",156,"switch",1,6.89477135142384,"Younger","plane","Dual",1,-0.5,-0.5,987.1,"2switchL1"
"392",2,"L1","English","eye",160,"switch",1,6.88284764327595,"Younger","eye","Dual",1,-0.5,-0.5,975.4,"2switchL1"
"247",2,"L1","English","trophy",4,"nonswitch",1,6.93166709902845,"Younger","trophy","Dual",1,-0.5,-0.5,1024.2,"2nonswitchL1"
"248",2,"L1","English","candle",5,"nonswitch",1,6.83206143461294,"Younger","candle","Dual",1,-0.5,-0.5,927.1,"2nonswitchL1"
"258",2,"L1","English","brain",15,"nonswitch",1,7.28762903742339,"Younger","brain","Dual",1,-0.5,-0.5,1462.1,"2nonswitchL1"
"263",2,"L1","English","knife",20,"nonswitch",1,7.16402408072817,"Younger","knife","Dual",1,-0.5,-0.5,1292.1,"2nonswitchL1"
"264",2,"L1","English","cake",21,"nonswitch",1,6.93117879392573,"Younger","cake","Dual",1,-0.5,-0.5,1023.7,"2nonswitchL1"
"267",2,"L1","English","teeth",24,"nonswitch",1,6.72034077512217,"Younger","teeth","Dual",1,-0.5,-0.5,829.1,"2nonswitchL1"
"268",2,"L1","English","cup",25,"nonswitch",1,6.92293941430718,"Younger","cup","Dual",1,-0.5,-0.5,1015.3,"2nonswitchL1"
"269",2,"L1","English","strawberry",26,"nonswitch",1,6.52502965784346,"Younger","strawberry","Dual",1,-0.5,-0.5,682,"2nonswitchL1"
"273",2,"L1","English","soap",30,"nonswitch",1,6.87160983234578,"Younger","soap","Dual",1,-0.5,-0.5,964.5,"2nonswitchL1"
"277",2,"L1","English","horse",36,"nonswitch",1,6.69295185194293,"Younger","horse","Dual",1,-0.5,-0.5,806.7,"2nonswitchL1"
"278",2,"L1","English","toy",37,"nonswitch",1,6.75332122567507,"Younger","toy","Dual",1,-0.5,-0.5,856.9,"2nonswitchL1"
"282",2,"L1","English","coat",42,"nonswitch",1,6.70661780793054,"Younger","coat","Dual",1,-0.5,-0.5,817.8,"2nonswitchL1"
"284",2,"L1","English","pen",46,"nonswitch",1,7.28324216357062,"Younger","pen","Dual",1,-0.5,-0.5,1455.7,"2nonswitchL1"
"289",2,"L1","English","plane",53,"nonswitch",1,6.73256821108878,"Younger","plane","Dual",1,-0.5,-0.5,839.3,"2nonswitchL1"
"290",2,"L1","English","newspaper",54,"nonswitch",1,7.04507946984536,"Younger","newspaper","Dual",1,-0.5,-0.5,1147.2,"2nonswitchL1"
"296",2,"L1","English","ladder",60,"nonswitch",1,6.41132553549988,"Younger","ladder","Dual",1,-0.5,-0.5,608.7,"2nonswitchL1"
"306",2,"L1","English","present",70,"nonswitch",1,6.68872824317977,"Younger","present","Dual",1,-0.5,-0.5,803.3,"2nonswitchL1"
"309",2,"L1","English","suitcase",73,"nonswitch",1,6.70441435496411,"Younger","suitcase","Dual",1,-0.5,-0.5,816,"2nonswitchL1"
"313",2,"L1","English","broom",77,"nonswitch",1,6.97129329978612,"Younger","broom","Dual",1,-0.5,-0.5,1065.6,"2nonswitchL1"
"319",2,"L1","English","coat",84,"nonswitch",1,6.85593553025234,"Younger","coat","Dual",1,-0.5,-0.5,949.5,"2nonswitchL1"
"320",2,"L1","English","cup",85,"nonswitch",1,6.83357038079276,"Younger","cup","Dual",1,-0.5,-0.5,928.5,"2nonswitchL1"
"330",2,"L1","English","teeth",95,"nonswitch",1,6.92215115926587,"Younger","teeth","Dual",1,-0.5,-0.5,1014.5,"2nonswitchL1"
"335",2,"L1","English","ladder",100,"nonswitch",1,6.68486169642313,"Younger","ladder","Dual",1,-0.5,-0.5,800.2,"2nonswitchL1"
"336",2,"L1","English","strawberry",101,"nonswitch",1,6.64105161291555,"Younger","strawberry","Dual",1,-0.5,-0.5,765.9,"2nonswitchL1"
"339",2,"L1","English","plane",104,"nonswitch",1,6.51885225917295,"Younger","plane","Dual",1,-0.5,-0.5,677.8,"2nonswitchL1"
"340",2,"L1","English","eye",105,"nonswitch",1,6.72202792905335,"Younger","eye","Dual",1,-0.5,-0.5,830.5,"2nonswitchL1"
"341",2,"L1","English","candle",106,"nonswitch",1,6.52297476206681,"Younger","candle","Dual",1,-0.5,-0.5,680.6,"2nonswitchL1"
"343",2,"L1","English","newspaper",110,"nonswitch",1,7.08355561878583,"Younger","newspaper","Dual",1,-0.5,-0.5,1192.2,"2nonswitchL1"
"349",2,"L1","English","brain",116,"nonswitch",1,6.91899191090813,"Younger","brain","Dual",1,-0.5,-0.5,1011.3,"2nonswitchL1"
"350",2,"L1","English","cake",117,"nonswitch",1,6.89548024810652,"Younger","cake","Dual",1,-0.5,-0.5,987.8,"2nonswitchL1"
"354",2,"L1","English","broom",122,"nonswitch",1,6.60597428215085,"Younger","broom","Dual",1,-0.5,-0.5,739.5,"2nonswitchL1"
"357",2,"L1","English","pen",125,"nonswitch",1,7.14519613499717,"Younger","pen","Dual",1,-0.5,-0.5,1268,"2nonswitchL1"
"358",2,"L1","English","toy",126,"nonswitch",1,7.1492101500676,"Younger","toy","Dual",1,-0.5,-0.5,1273.1,"2nonswitchL1"
"365",2,"L1","English","knife",133,"nonswitch",1,6.69233185068307,"Younger","knife","Dual",1,-0.5,-0.5,806.2,"2nonswitchL1"
"366",2,"L1","English","trophy",134,"nonswitch",1,6.66083119900252,"Younger","trophy","Dual",1,-0.5,-0.5,781.2,"2nonswitchL1"
"372",2,"L1","English","horse",140,"nonswitch",1,6.77582260772131,"Younger","horse","Dual",1,-0.5,-0.5,876.4,"2nonswitchL1"
"382",2,"L1","English","soap",150,"nonswitch",1,6.77056003980429,"Younger","soap","Dual",1,-0.5,-0.5,871.8,"2nonswitchL1"
"385",2,"L1","English","suitcase",153,"nonswitch",1,6.78615245722289,"Younger","suitcase","Dual",1,-0.5,-0.5,885.5,"2nonswitchL1"
"389",2,"L1","English","present",157,"nonswitch",1,6.701837508333,"Younger","present","Dual",1,-0.5,-0.5,813.9,"2nonswitchL1"
"249",2,"L2","French","jouet",6,"switch",1,7.62021477057445,"Younger","toy","Dual",1,0.5,-0.5,2039,"2switchL2"
"252",2,"L2","French","tasse",9,"switch",1,7.54401459733503,"Younger","cup","Dual",1,0.5,-0.5,1889.4,"2switchL2"
"255",2,"L2","French","échelle",12,"switch",1,7.53636393840451,"Younger","ladder","Dual",1,0.5,-0.5,1875,"2switchL2"
"259",2,"L2","French","gateau",16,"switch",1,7.30907848792297,"Younger","cake","Dual",1,0.5,-0.5,1493.8,"2switchL2"
"265",2,"L2","French","cerveau",22,"switch",1,7.76988545189686,"Younger","brain","Dual",1,0.5,-0.5,2368.2,"2switchL2"
"270",2,"L2","French","stylo",27,"switch",1,6.7864911914891,"Younger","pen","Dual",1,0.5,-0.5,885.8,"2switchL2"
"274",2,"L2","French","fraise",31,"switch",1,7.36549653165567,"Younger","strawberry","Dual",1,0.5,-0.5,1580.5,"2switchL2"
"279",2,"L2","French","balai",38,"switch",1,7.76836415342901,"Younger","broom","Dual",1,0.5,-0.5,2364.6,"2switchL2"
"283",2,"L2","French","cheval",43,"switch",1,6.6866097303306,"Younger","horse","Dual",1,0.5,-0.5,801.6,"2switchL2"
"285",2,"L2","French","savon",47,"switch",1,7.92995437641695,"Younger","soap","Dual",1,0.5,-0.5,2779.3,"2switchL2"
"291",2,"L2","French","bougie",55,"switch",1,7.84459345874395,"Younger","candle","Dual",1,0.5,-0.5,2551.9,"2switchL2"
"294",2,"L2","French","avion",58,"switch",1,6.78094411211575,"Younger","plane","Dual",1,0.5,-0.5,880.9,"2switchL2"
"297",2,"L2","French","manteau",61,"switch",1,7.22613628018319,"Younger","coat","Dual",1,0.5,-0.5,1374.9,"2switchL2"
"302",2,"L2","French","dents",66,"switch",1,7.63969038674934,"Younger","teeth","Dual",1,0.5,-0.5,2079.1,"2switchL2"
"307",2,"L2","French","coupe",71,"switch",1,7.00723855746709,"Younger","trophy","Dual",1,0.5,-0.5,1104.6,"2switchL2"
"310",2,"L2","French","couteau",74,"switch",1,7.86729705285061,"Younger","knife","Dual",1,0.5,-0.5,2610.5,"2switchL2"
"314",2,"L2","French","journal",78,"switch",1,7.47295544521146,"Younger","newspaper","Dual",1,0.5,-0.5,1759.8,"2switchL2"
"321",2,"L2","French","stylo",86,"switch",1,7.07369335652557,"Younger","pen","Dual",1,0.5,-0.5,1180.5,"2switchL2"
"324",2,"L2","French","dents",89,"switch",1,6.78298539202619,"Younger","teeth","Dual",1,0.5,-0.5,882.7,"2switchL2"
"327",2,"L2","French","tasse",92,"switch",1,7.71708421383149,"Younger","cup","Dual",1,0.5,-0.5,2246.4,"2switchL2"
"331",2,"L2","French","coupe",96,"switch",1,7.04586368109977,"Younger","trophy","Dual",1,0.5,-0.5,1148.1,"2switchL2"
"337",2,"L2","French","échelle",102,"switch",1,6.96139082814805,"Younger","ladder","Dual",1,0.5,-0.5,1055.1,"2switchL2"
"342",2,"L2","French","manteau",107,"switch",1,7.44949800538285,"Younger","coat","Dual",1,0.5,-0.5,1719,"2switchL2"
"344",2,"L2","French","cadeau",111,"switch",1,7.83014735971427,"Younger","present","Dual",1,0.5,-0.5,2515.3,"2switchL2"
"347",2,"L2","French","journal",114,"switch",1,6.82285077189169,"Younger","newspaper","Dual",1,0.5,-0.5,918.6,"2switchL2"
"351",2,"L2","French","valise",118,"switch",1,6.91760659503251,"Younger","suitcase","Dual",1,0.5,-0.5,1009.9,"2switchL2"
"355",2,"L2","French","fraise",123,"switch",1,6.80505788074379,"Younger","strawberry","Dual",1,0.5,-0.5,902.4,"2switchL2"
"359",2,"L2","French","savon",127,"switch",1,7.71476671569113,"Younger","soap","Dual",1,0.5,-0.5,2241.2,"2switchL2"
"362",2,"L2","French","avion",130,"switch",1,6.78863384807427,"Younger","plane","Dual",1,0.5,-0.5,887.7,"2switchL2"
"367",2,"L2","French","gateau",135,"switch",1,6.82339493036406,"Younger","cake","Dual",1,0.5,-0.5,919.1,"2switchL2"
"370",2,"L2","French","cheval",138,"switch",1,6.60000654438004,"Younger","horse","Dual",1,0.5,-0.5,735.1,"2switchL2"
"373",2,"L2","French","couteau",141,"switch",1,7.8605322194267,"Younger","knife","Dual",1,0.5,-0.5,2592.9,"2switchL2"
"378",2,"L2","French","cerveau",146,"switch",1,7.44102709157796,"Younger","brain","Dual",1,0.5,-0.5,1704.5,"2switchL2"
"383",2,"L2","French","bougie",151,"switch",1,7.1511719351359,"Younger","candle","Dual",1,0.5,-0.5,1275.6,"2switchL2"
"386",2,"L2","French","jouet",154,"switch",1,6.80272804111443,"Younger","toy","Dual",1,0.5,-0.5,900.3,"2switchL2"
"390",2,"L2","French","balai",158,"switch",1,7.59241655589178,"Younger","broom","Dual",1,0.5,-0.5,1983.1,"2switchL2"
"393",2,"L1","English","broom",1,"SingleNaming",1,6.87233533375088,"Younger","broom","Single",1,-0.5,-0.5,965.2,"2SingleNamingL1"
"395",2,"L1","English","candle",2,"SingleNaming",1,6.44904760947825,"Younger","candle","Single",1,-0.5,-0.5,632.1,"2SingleNamingL1"
"397",2,"L1","English","suitcase",3,"SingleNaming",1,6.68110558833864,"Younger","suitcase","Single",1,-0.5,-0.5,797.2,"2SingleNamingL1"
"399",2,"L1","English","horse",4,"SingleNaming",1,6.32022858028588,"Younger","horse","Single",1,-0.5,-0.5,555.7,"2SingleNamingL1"
"401",2,"L1","English","soap",5,"SingleNaming",1,6.66619314214391,"Younger","soap","Single",1,-0.5,-0.5,785.4,"2SingleNamingL1"
"403",2,"L1","English","pen",6,"SingleNaming",1,6.61820479547033,"Younger","pen","Single",1,-0.5,-0.5,748.6,"2SingleNamingL1"
"405",2,"L1","English","newspaper",7,"SingleNaming",1,6.57130304216093,"Younger","newspaper","Single",1,-0.5,-0.5,714.3,"2SingleNamingL1"
"406",2,"L1","English","cup",8,"SingleNaming",1,6.50712844751422,"Younger","cup","Single",1,-0.5,-0.5,669.9,"2SingleNamingL1"
"408",2,"L1","English","knife",9,"SingleNaming",1,6.38620569185317,"Younger","knife","Single",1,-0.5,-0.5,593.6,"2SingleNamingL1"
"410",2,"L1","English","coat",10,"SingleNaming",1,6.44952210533532,"Younger","coat","Single",1,-0.5,-0.5,632.4,"2SingleNamingL1"
"413",2,"L1","English","strawberry",11,"SingleNaming",1,6.7161103947273,"Younger","strawberry","Single",1,-0.5,-0.5,825.6,"2SingleNamingL1"
"414",2,"L1","English","trophy",12,"SingleNaming",1,6.61552956648048,"Younger","trophy","Single",1,-0.5,-0.5,746.6,"2SingleNamingL1"
"416",2,"L1","English","eye",13,"SingleNaming",1,6.64690986048392,"Younger","eye","Single",1,-0.5,-0.5,770.4,"2SingleNamingL1"
"419",2,"L1","English","cake",14,"SingleNaming",1,7.08170858610557,"Younger","cake","Single",1,-0.5,-0.5,1190,"2SingleNamingL1"
"420",2,"L1","English","teeth",15,"SingleNaming",1,6.58658536236937,"Younger","teeth","Single",1,-0.5,-0.5,725.3,"2SingleNamingL1"
"422",2,"L1","English","present",16,"SingleNaming",1,6.51663676458089,"Younger","present","Single",1,-0.5,-0.5,676.3,"2SingleNamingL1"
"424",2,"L1","English","brain",17,"SingleNaming",1,6.6325286477977,"Younger","brain","Single",1,-0.5,-0.5,759.4,"2SingleNamingL1"
"426",2,"L1","English","toy",18,"SingleNaming",1,6.4990348781533,"Younger","toy","Single",1,-0.5,-0.5,664.5,"2SingleNamingL1"
"428",2,"L1","English","ladder",19,"SingleNaming",1,6.48432984549698,"Younger","ladder","Single",1,-0.5,-0.5,654.8,"2SingleNamingL1"
"430",2,"L1","English","plane",20,"SingleNaming",1,6.81487215150208,"Younger","plane","Single",1,-0.5,-0.5,911.3,"2SingleNamingL1"
"432",2,"L1","English","teeth",21,"SingleNaming",1,6.46178062753576,"Younger","teeth","Single",1,-0.5,-0.5,640.2,"2SingleNamingL1"
"434",2,"L1","English","coat",22,"SingleNaming",1,6.35974686408843,"Younger","coat","Single",1,-0.5,-0.5,578.1,"2SingleNamingL1"
"436",2,"L1","English","cake",23,"SingleNaming",1,6.74605953998184,"Younger","cake","Single",1,-0.5,-0.5,850.7,"2SingleNamingL1"
"437",2,"L1","English","toy",24,"SingleNaming",1,6.56934115812358,"Younger","toy","Single",1,-0.5,-0.5,712.9,"2SingleNamingL1"
"439",2,"L1","English","strawberry",25,"SingleNaming",1,6.31119019626844,"Younger","strawberry","Single",1,-0.5,-0.5,550.7,"2SingleNamingL1"
"441",2,"L1","English","plane",26,"SingleNaming",1,6.41558783703468,"Younger","plane","Single",1,-0.5,-0.5,611.3,"2SingleNamingL1"
"443",2,"L1","English","knife",27,"SingleNaming",1,6.24066563274148,"Younger","knife","Single",1,-0.5,-0.5,513.2,"2SingleNamingL1"
"445",2,"L1","English","suitcase",28,"SingleNaming",1,6.78908434926446,"Younger","suitcase","Single",1,-0.5,-0.5,888.1,"2SingleNamingL1"
"447",2,"L1","English","trophy",29,"SingleNaming",1,6.88745052564177,"Younger","trophy","Single",1,-0.5,-0.5,979.9,"2SingleNamingL1"
"449",2,"L1","English","ladder",30,"SingleNaming",1,6.34124074935556,"Younger","ladder","Single",1,-0.5,-0.5,567.5,"2SingleNamingL1"
"451",2,"L1","English","eye",31,"SingleNaming",1,6.59277052400235,"Younger","eye","Single",1,-0.5,-0.5,729.8,"2SingleNamingL1"
"453",2,"L1","English","newspaper",32,"SingleNaming",1,6.51604513610631,"Younger","newspaper","Single",1,-0.5,-0.5,675.9,"2SingleNamingL1"
"455",2,"L1","English","candle",33,"SingleNaming",1,6.47389069635227,"Younger","candle","Single",1,-0.5,-0.5,648,"2SingleNamingL1"
"457",2,"L1","English","present",34,"SingleNaming",1,6.53495095311352,"Younger","present","Single",1,-0.5,-0.5,688.8,"2SingleNamingL1"
"459",2,"L1","English","horse",35,"SingleNaming",1,7.08799132928507,"Younger","horse","Single",1,-0.5,-0.5,1197.5,"2SingleNamingL1"
"461",2,"L1","English","brain",36,"SingleNaming",1,6.97933147747136,"Younger","brain","Single",1,-0.5,-0.5,1074.2,"2SingleNamingL1"
"463",2,"L1","English","cup",37,"SingleNaming",1,6.85772434537657,"Younger","cup","Single",1,-0.5,-0.5,951.2,"2SingleNamingL1"
"465",2,"L1","English","pen",38,"SingleNaming",1,6.48081113919685,"Younger","pen","Single",1,-0.5,-0.5,652.5,"2SingleNamingL1"
"467",2,"L1","English","soap",39,"SingleNaming",1,6.88683803072675,"Younger","soap","Single",1,-0.5,-0.5,979.3,"2SingleNamingL1"
"469",2,"L1","English","broom",40,"SingleNaming",1,6.43711144484898,"Younger","broom","Single",1,-0.5,-0.5,624.6,"2SingleNamingL1"
"394",2,"L2","French","dents",1,"SingleNaming",1,7.0081434530134,"Younger","teeth","Single",1,0.5,-0.5,1105.6,"2SingleNamingL2"
"396",2,"L2","French","fraise",2,"SingleNaming",1,6.95043155326257,"Younger","strawberry","Single",1,0.5,-0.5,1043.6,"2SingleNamingL2"
"398",2,"L2","French","tasse",3,"SingleNaming",1,7.75910207421563,"Younger","cup","Single",1,0.5,-0.5,2342.8,"2SingleNamingL2"
"400",2,"L2","French","balai",4,"SingleNaming",1,7.62803112693033,"Younger","broom","Single",1,0.5,-0.5,2055,"2SingleNamingL2"
"402",2,"L2","French","oeil",5,"SingleNaming",1,7.0289104005386,"Younger","eye","Single",1,0.5,-0.5,1128.8,"2SingleNamingL2"
"404",2,"L2","French","cadeau",6,"SingleNaming",1,7.59709522119913,"Younger","present","Single",1,0.5,-0.5,1992.4,"2SingleNamingL2"
"407",2,"L2","French","bougie",8,"SingleNaming",1,7.32237832487507,"Younger","candle","Single",1,0.5,-0.5,1513.8,"2SingleNamingL2"
"409",2,"L2","French","stylo",9,"SingleNaming",1,6.73018242921039,"Younger","pen","Single",1,0.5,-0.5,837.3,"2SingleNamingL2"
"411",2,"L2","French","jouet",10,"SingleNaming",1,6.75611810431918,"Younger","toy","Single",1,0.5,-0.5,859.3,"2SingleNamingL2"
"412",2,"L2","French","cheval",11,"SingleNaming",1,6.65518291697712,"Younger","horse","Single",1,0.5,-0.5,776.8,"2SingleNamingL2"
"415",2,"L2","French","manteau",12,"SingleNaming",1,6.77980826465151,"Younger","coat","Single",1,0.5,-0.5,879.9,"2SingleNamingL2"
"417",2,"L2","French","avion",13,"SingleNaming",1,6.73292558794648,"Younger","plane","Single",1,0.5,-0.5,839.6,"2SingleNamingL2"
"418",2,"L2","French","gateau",14,"SingleNaming",1,6.67569711027835,"Younger","cake","Single",1,0.5,-0.5,792.9,"2SingleNamingL2"
"421",2,"L2","French","échelle",15,"SingleNaming",1,7.12246335147525,"Younger","ladder","Single",1,0.5,-0.5,1239.5,"2SingleNamingL2"
"423",2,"L2","French","couteau",16,"SingleNaming",1,7.91026040367172,"Younger","knife","Single",1,0.5,-0.5,2725.1,"2SingleNamingL2"
"425",2,"L2","French","savon",17,"SingleNaming",1,7.6686545615929,"Younger","soap","Single",1,0.5,-0.5,2140.2,"2SingleNamingL2"
"427",2,"L2","French","journal",18,"SingleNaming",1,6.75693238924755,"Younger","newspaper","Single",1,0.5,-0.5,860,"2SingleNamingL2"
"429",2,"L2","French","cerveau",19,"SingleNaming",1,7.31834058978487,"Younger","brain","Single",1,0.5,-0.5,1507.7,"2SingleNamingL2"
"431",2,"L2","French","coupe",20,"SingleNaming",1,6.89820986613861,"Younger","trophy","Single",1,0.5,-0.5,990.5,"2SingleNamingL2"
"433",2,"L2","French","couteau",21,"SingleNaming",1,7.53551024077503,"Younger","knife","Single",1,0.5,-0.5,1873.4,"2SingleNamingL2"
"435",2,"L2","French","fraise",22,"SingleNaming",1,7.20295899283276,"Younger","strawberry","Single",1,0.5,-0.5,1343.4,"2SingleNamingL2"
"438",2,"L2","French","cerveau",24,"SingleNaming",1,7.71230965711621,"Younger","brain","Single",1,0.5,-0.5,2235.7,"2SingleNamingL2"
"440",2,"L2","French","oeil",25,"SingleNaming",1,7.29837744022053,"Younger","eye","Single",1,0.5,-0.5,1477.9,"2SingleNamingL2"
"442",2,"L2","French","échelle",26,"SingleNaming",1,7.55365360694147,"Younger","ladder","Single",1,0.5,-0.5,1907.7,"2SingleNamingL2"
"444",2,"L2","French","valise",27,"SingleNaming",1,7.68239027638835,"Younger","suitcase","Single",1,0.5,-0.5,2169.8,"2SingleNamingL2"
"446",2,"L2","French","dents",28,"SingleNaming",1,7.78945456608667,"Younger","teeth","Single",1,0.5,-0.5,2415,"2SingleNamingL2"
"448",2,"L2","French","stylo",29,"SingleNaming",1,7.40165852355218,"Younger","pen","Single",1,0.5,-0.5,1638.7,"2SingleNamingL2"
"450",2,"L2","French","jouet",30,"SingleNaming",1,7.63026706817199,"Younger","toy","Single",1,0.5,-0.5,2059.6,"2SingleNamingL2"
"452",2,"L2","French","cheval",31,"SingleNaming",1,6.88223232175105,"Younger","horse","Single",1,0.5,-0.5,974.8,"2SingleNamingL2"
"454",2,"L2","French","manteau",32,"SingleNaming",1,7.27510306497717,"Younger","coat","Single",1,0.5,-0.5,1443.9,"2SingleNamingL2"
"456",2,"L2","French","avion",33,"SingleNaming",1,7.83834331555712,"Younger","plane","Single",1,0.5,-0.5,2536,"2SingleNamingL2"
"458",2,"L2","French","gateau",34,"SingleNaming",1,7.70989138455391,"Younger","cake","Single",1,0.5,-0.5,2230.3,"2SingleNamingL2"
"460",2,"L2","French","bougie",35,"SingleNaming",1,7.8641509483526,"Younger","candle","Single",1,0.5,-0.5,2602.3,"2SingleNamingL2"
"462",2,"L2","French","balai",36,"SingleNaming",1,7.86049365182734,"Younger","broom","Single",1,0.5,-0.5,2592.8,"2SingleNamingL2"
"464",2,"L2","French","savon",37,"SingleNaming",1,7.50025305139215,"Younger","soap","Single",1,0.5,-0.5,1808.5,"2SingleNamingL2"
"466",2,"L2","French","journal",38,"SingleNaming",1,7.31148554979658,"Younger","newspaper","Single",1,0.5,-0.5,1497.4,"2SingleNamingL2"
"468",2,"L2","French","cadeau",39,"SingleNaming",1,7.84596404615722,"Younger","present","Single",1,0.5,-0.5,2555.4,"2SingleNamingL2"
"470",2,"L2","French","coupe",40,"SingleNaming",1,7.68358782616069,"Younger","trophy","Single",1,0.5,-0.5,2172.4,"2SingleNamingL2"
"496",3,"L2","French","tasse",2,"switch",1,7.09348767889817,"Younger","cup","Dual",1,0.5,-0.5,1204.1,"3switchL2"
"500",3,"L2","French","échelle",6,"switch",1,7.30538980797511,"Younger","ladder","Dual",1,0.5,-0.5,1488.3,"3switchL2"
"501",3,"L2","French","dents",9,"switch",1,7.14282740116162,"Younger","teeth","Dual",1,0.5,-0.5,1265,"3switchL2"
"506",3,"L2","French","cerveau",14,"switch",1,7.07825725897075,"Younger","brain","Dual",1,0.5,-0.5,1185.9,"3switchL2"
"510",3,"L2","French","stylo",18,"switch",1,6.84704940386474,"Younger","pen","Dual",1,0.5,-0.5,941.1,"3switchL2"
"513",3,"L2","French","gateau",21,"switch",1,6.99209642741589,"Younger","cake","Dual",1,0.5,-0.5,1088,"3switchL2"
"517",3,"L2","French","couteau",27,"switch",1,7.68257460818611,"Younger","knife","Dual",1,0.5,-0.5,2170.2,"3switchL2"
"521",3,"L2","French","balai",31,"switch",1,7.55684607334516,"Younger","broom","Dual",1,0.5,-0.5,1913.8,"3switchL2"
"525",3,"L2","French","savon",35,"switch",1,6.82957749791811,"Younger","soap","Dual",1,0.5,-0.5,924.8,"3switchL2"
"528",3,"L2","French","avion",38,"switch",1,7.23641133440334,"Younger","plane","Dual",1,0.5,-0.5,1389.1,"3switchL2"
"536",3,"L2","French","bougie",47,"switch",1,7.50494206839617,"Younger","candle","Dual",1,0.5,-0.5,1817,"3switchL2"
"541",3,"L2","French","oeil",52,"switch",1,6.96508034560141,"Younger","eye","Dual",1,0.5,-0.5,1059,"3switchL2"
"544",3,"L2","French","manteau",55,"switch",1,7.09348767889817,"Younger","coat","Dual",1,0.5,-0.5,1204.1,"3switchL2"
"549",3,"L2","French","stylo",62,"switch",1,6.7990558620588,"Younger","pen","Dual",1,0.5,-0.5,897,"3switchL2"
"551",3,"L2","French","valise",66,"switch",1,7.14622084639413,"Younger","suitcase","Dual",1,0.5,-0.5,1269.3,"3switchL2"
"556",3,"L2","French","cadeau",71,"switch",1,7.49448583083759,"Younger","present","Dual",1,0.5,-0.5,1798.1,"3switchL2"
"558",3,"L2","French","journal",75,"switch",1,7.05176903912104,"Younger","newspaper","Dual",1,0.5,-0.5,1154.9,"3switchL2"
"561",3,"L2","French","fraise",78,"switch",1,7.11134897105163,"Younger","strawberry","Dual",1,0.5,-0.5,1225.8,"3switchL2"
"564",3,"L2","French","tasse",82,"switch",1,7.32620242131347,"Younger","cup","Dual",1,0.5,-0.5,1519.6,"3switchL2"
"568",3,"L2","French","balai",86,"switch",1,7.11126738834712,"Younger","broom","Dual",1,0.5,-0.5,1225.7,"3switchL2"
"574",3,"L2","French","cerveau",94,"switch",1,7.25700270709207,"Younger","brain","Dual",1,0.5,-0.5,1418,"3switchL2"
"578",3,"L2","French","jouet",98,"switch",1,7.52272467847806,"Younger","toy","Dual",1,0.5,-0.5,1849.6,"3switchL2"
"581",3,"L2","French","échelle",101,"switch",1,6.88673591175806,"Younger","ladder","Dual",1,0.5,-0.5,979.2,"3switchL2"
"585",3,"L2","French","journal",107,"switch",1,7.37531843268851,"Younger","newspaper","Dual",1,0.5,-0.5,1596.1,"3switchL2"
"589",3,"L2","French","dents",111,"switch",1,7.29959464350849,"Younger","teeth","Dual",1,0.5,-0.5,1479.7,"3switchL2"
"594",3,"L2","French","couteau",118,"switch",1,7.38640888904178,"Younger","knife","Dual",1,0.5,-0.5,1613.9,"3switchL2"
"605",3,"L2","French","oeil",132,"switch",1,7.03447603176129,"Younger","eye","Dual",1,0.5,-0.5,1135.1,"3switchL2"
"608",3,"L2","French","bougie",135,"switch",1,7.84709825438645,"Younger","candle","Dual",1,0.5,-0.5,2558.3,"3switchL2"
"612",3,"L2","French","valise",139,"switch",1,7.26975601567622,"Younger","suitcase","Dual",1,0.5,-0.5,1436.2,"3switchL2"
"615",3,"L2","French","savon",142,"switch",1,6.69096649330594,"Younger","soap","Dual",1,0.5,-0.5,805.1,"3switchL2"
"617",3,"L2","French","avion",146,"switch",1,6.94080313302834,"Younger","plane","Dual",1,0.5,-0.5,1033.6,"3switchL2"
"622",3,"L2","French","jouet",151,"switch",1,6.96508034560141,"Younger","toy","Dual",1,0.5,-0.5,1059,"3switchL2"
"624",3,"L2","French","cheval",155,"switch",1,6.7563508248229,"Younger","horse","Dual",1,0.5,-0.5,859.5,"3switchL2"
"497",3,"L1","English","horse",3,"switch",1,7.47244389263828,"Younger","horse","Dual",1,-0.5,-0.5,1758.9,"3switchL1"
"502",3,"L1","English","soap",10,"switch",1,7.07521697286907,"Younger","soap","Dual",1,-0.5,-0.5,1182.3,"3switchL1"
"508",3,"L1","English","brain",16,"switch",1,7.23633934275434,"Younger","brain","Dual",1,-0.5,-0.5,1389,"3switchL1"
"511",3,"L1","English","toy",19,"switch",1,7.03685185231655,"Younger","toy","Dual",1,-0.5,-0.5,1137.8,"3switchL1"
"515",3,"L1","English","trophy",23,"switch",1,7.71481133364987,"Younger","trophy","Dual",1,-0.5,-0.5,2241.3,"3switchL1"
"519",3,"L1","English","teeth",29,"switch",1,7.44530072744751,"Younger","teeth","Dual",1,-0.5,-0.5,1711.8,"3switchL1"
"524",3,"L1","English","suitcase",34,"switch",1,7.005335607321,"Younger","suitcase","Dual",1,-0.5,-0.5,1102.5,"3switchL1"
"526",3,"L1","English","present",36,"switch",1,7.22519030958327,"Younger","present","Dual",1,-0.5,-0.5,1373.6,"3switchL1"
"530",3,"L1","English","coat",40,"switch",1,7.36827659283838,"Younger","coat","Dual",1,-0.5,-0.5,1584.9,"3switchL1"
"532",3,"L1","English","cup",43,"switch",1,7.44266845427719,"Younger","cup","Dual",1,-0.5,-0.5,1707.3,"3switchL1"
"539",3,"L1","English","eye",50,"switch",1,7.51289058221887,"Younger","eye","Dual",1,-0.5,-0.5,1831.5,"3switchL1"
"542",3,"L1","English","newspaper",53,"switch",1,7.1738050513068,"Younger","newspaper","Dual",1,-0.5,-0.5,1304.8,"3switchL1"
"547",3,"L1","English","knife",58,"switch",1,7.10840779246081,"Younger","knife","Dual",1,-0.5,-0.5,1222.2,"3switchL1"
"548",3,"L1","English","present",61,"switch",1,7.65902984821869,"Younger","present","Dual",1,-0.5,-0.5,2119.7,"3switchL1"
"554",3,"L1","English","plane",69,"switch",1,7.00206495845288,"Younger","plane","Dual",1,-0.5,-0.5,1098.9,"3switchL1"
"557",3,"L1","English","broom",74,"switch",1,7.10184070269633,"Younger","broom","Dual",1,-0.5,-0.5,1214.2,"3switchL1"
"559",3,"L1","English","strawberry",76,"switch",1,7.14472283688942,"Younger","strawberry","Dual",1,-0.5,-0.5,1267.4,"3switchL1"
"563",3,"L1","English","ladder",80,"switch",1,7.19638690046951,"Younger","ladder","Dual",1,-0.5,-0.5,1334.6,"3switchL1"
"565",3,"L1","English","pen",83,"switch",1,7.16324984718067,"Younger","pen","Dual",1,-0.5,-0.5,1291.1,"3switchL1"
"570",3,"L1","English","pen",90,"switch",1,7.417340133312,"Younger","pen","Dual",1,-0.5,-0.5,1664.6,"3switchL1"
"576",3,"L1","English","suitcase",96,"switch",1,7.27800763133456,"Younger","suitcase","Dual",1,-0.5,-0.5,1448.1,"3switchL1"
"579",3,"L1","English","eye",99,"switch",1,7.67855770410769,"Younger","eye","Dual",1,-0.5,-0.5,2161.5,"3switchL1"
"587",3,"L1","English","teeth",109,"switch",1,7.07216741523252,"Younger","teeth","Dual",1,-0.5,-0.5,1178.7,"3switchL1"
"592",3,"L1","English","horse",114,"switch",1,7.08890948802408,"Younger","horse","Dual",1,-0.5,-0.5,1198.6,"3switchL1"
"596",3,"L1","English","cup",120,"switch",1,6.83926228253684,"Younger","cup","Dual",1,-0.5,-0.5,933.8,"3switchL1"
"598",3,"L1","English","knife",123,"switch",1,7.05763972851943,"Younger","knife","Dual",1,-0.5,-0.5,1161.7,"3switchL1"
"603",3,"L1","English","cake",130,"switch",1,7.08740660722021,"Younger","cake","Dual",1,-0.5,-0.5,1196.8,"3switchL1"
"606",3,"L1","English","broom",133,"switch",1,7.25981961036319,"Younger","broom","Dual",1,-0.5,-0.5,1422,"3switchL1"
"611",3,"L1","English","toy",138,"switch",1,7.42488101529661,"Younger","toy","Dual",1,-0.5,-0.5,1677.2,"3switchL1"
"614",3,"L1","English","ladder",141,"switch",1,7.2152399787301,"Younger","ladder","Dual",1,-0.5,-0.5,1360,"3switchL1"
"620",3,"L1","English","newspaper",149,"switch",1,7.09498145510955,"Younger","newspaper","Dual",1,-0.5,-0.5,1205.9,"3switchL1"
"623",3,"L1","English","soap",154,"switch",1,7.0284673541444,"Younger","soap","Dual",1,-0.5,-0.5,1128.3,"3switchL1"
"625",3,"L1","English","plane",156,"switch",1,6.98878211762451,"Younger","plane","Dual",1,-0.5,-0.5,1084.4,"3switchL1"
"627",3,"L1","English","coat",160,"switch",1,7.1024170478607,"Younger","coat","Dual",1,-0.5,-0.5,1214.9,"3switchL1"
"498",3,"L1","English","eye",4,"nonswitch",1,7.10947088288273,"Younger","eye","Dual",1,-0.5,-0.5,1223.5,"3nonswitchL1"
"499",3,"L1","English","suitcase",5,"nonswitch",1,6.9897038616293,"Younger","suitcase","Dual",1,-0.5,-0.5,1085.4,"3nonswitchL1"
"503",3,"L1","English","candle",11,"nonswitch",1,7.1038153618866,"Younger","candle","Dual",1,-0.5,-0.5,1216.6,"3nonswitchL1"
"504",3,"L1","English","toy",12,"nonswitch",1,7.12897698473365,"Younger","toy","Dual",1,-0.5,-0.5,1247.6,"3nonswitchL1"
"505",3,"L1","English","teeth",13,"nonswitch",1,7.24928612779421,"Younger","teeth","Dual",1,-0.5,-0.5,1407.1,"3nonswitchL1"
"509",3,"L1","English","knife",17,"nonswitch",1,6.90505162740782,"Younger","knife","Dual",1,-0.5,-0.5,997.3,"3nonswitchL1"
"512",3,"L1","English","cup",20,"nonswitch",1,6.99539978883418,"Younger","cup","Dual",1,-0.5,-0.5,1091.6,"3nonswitchL1"
"516",3,"L1","English","present",24,"nonswitch",1,7.3093462255417,"Younger","present","Dual",1,-0.5,-0.5,1494.2,"3nonswitchL1"
"527",3,"L1","English","strawberry",37,"nonswitch",1,7.21912946369071,"Younger","strawberry","Dual",1,-0.5,-0.5,1365.3,"3nonswitchL1"
"533",3,"L1","English","newspaper",44,"nonswitch",1,7.04507946984536,"Younger","newspaper","Dual",1,-0.5,-0.5,1147.2,"3nonswitchL1"
"534",3,"L1","English","coat",45,"nonswitch",1,7.08531551867438,"Younger","coat","Dual",1,-0.5,-0.5,1194.3,"3nonswitchL1"
"535",3,"L1","English","cake",46,"nonswitch",1,6.95816318152598,"Younger","cake","Dual",1,-0.5,-0.5,1051.7,"3nonswitchL1"
"540",3,"L1","English","plane",51,"nonswitch",1,6.94080313302834,"Younger","plane","Dual",1,-0.5,-0.5,1033.6,"3nonswitchL1"
"543",3,"L1","English","soap",54,"nonswitch",1,7.16881099536621,"Younger","soap","Dual",1,-0.5,-0.5,1298.3,"3nonswitchL1"
"555",3,"L1","English","brain",70,"nonswitch",1,6.96508034560141,"Younger","brain","Dual",1,-0.5,-0.5,1059,"3nonswitchL1"
"560",3,"L1","English","broom",77,"nonswitch",1,6.9987835773297,"Younger","broom","Dual",1,-0.5,-0.5,1095.3,"3nonswitchL1"
"566",3,"L1","English","present",84,"nonswitch",1,7.07580886397839,"Younger","present","Dual",1,-0.5,-0.5,1183,"3nonswitchL1"
"567",3,"L1","English","teeth",85,"nonswitch",1,6.93069025026463,"Younger","teeth","Dual",1,-0.5,-0.5,1023.2,"3nonswitchL1"
"571",3,"L1","English","toy",91,"nonswitch",1,7.00197395422112,"Younger","toy","Dual",1,-0.5,-0.5,1098.8,"3nonswitchL1"
"573",3,"L1","English","suitcase",93,"nonswitch",1,7.03773035540388,"Younger","suitcase","Dual",1,-0.5,-0.5,1138.8,"3nonswitchL1"
"577",3,"L1","English","cup",97,"nonswitch",1,7.12793444083233,"Younger","cup","Dual",1,-0.5,-0.5,1246.3,"3nonswitchL1"
"580",3,"L1","English","broom",100,"nonswitch",1,6.7977171737732,"Younger","broom","Dual",1,-0.5,-0.5,895.8,"3nonswitchL1"
"582",3,"L1","English","newspaper",104,"nonswitch",1,7.06081965470897,"Younger","newspaper","Dual",1,-0.5,-0.5,1165.4,"3nonswitchL1"
"583",3,"L1","English","eye",105,"nonswitch",1,7.61268279807761,"Younger","eye","Dual",1,-0.5,-0.5,2023.7,"3nonswitchL1"
"584",3,"L1","English","strawberry",106,"nonswitch",1,7.2671764485889,"Younger","strawberry","Dual",1,-0.5,-0.5,1432.5,"3nonswitchL1"
"588",3,"L1","English","ladder",110,"nonswitch",1,7.18121164416994,"Younger","ladder","Dual",1,-0.5,-0.5,1314.5,"3nonswitchL1"
"593",3,"L1","English","horse",117,"nonswitch",1,6.99209642741589,"Younger","horse","Dual",1,-0.5,-0.5,1088,"3nonswitchL1"
"599",3,"L1","English","cake",124,"nonswitch",1,6.86422127695841,"Younger","cake","Dual",1,-0.5,-0.5,957.4,"3nonswitchL1"
"600",3,"L1","English","brain",125,"nonswitch",1,7.10996115908147,"Younger","brain","Dual",1,-0.5,-0.5,1224.1,"3nonswitchL1"
"601",3,"L1","English","soap",126,"nonswitch",1,7.21170432389779,"Younger","soap","Dual",1,-0.5,-0.5,1355.2,"3nonswitchL1"
"604",3,"L1","English","candle",131,"nonswitch",1,6.98536425830912,"Younger","candle","Dual",1,-0.5,-0.5,1080.7,"3nonswitchL1"
"607",3,"L1","English","trophy",134,"nonswitch",1,6.96224346426621,"Younger","trophy","Dual",1,-0.5,-0.5,1056,"3nonswitchL1"
"621",3,"L1","English","plane",150,"nonswitch",1,6.78139809010561,"Younger","plane","Dual",1,-0.5,-0.5,881.3,"3nonswitchL1"
"626",3,"L1","English","pen",157,"nonswitch",1,6.91721043775289,"Younger","pen","Dual",1,-0.5,-0.5,1009.5,"3nonswitchL1"
"507",3,"L2","French","dents",15,"nonswitch",1,7.68358782616069,"Younger","teeth","Dual",1,0.5,-0.5,2172.4,"3nonswitchL2"
"514",3,"L2","French","journal",22,"nonswitch",1,6.98878211762451,"Younger","newspaper","Dual",1,0.5,-0.5,1084.4,"3nonswitchL2"
"518",3,"L2","French","bougie",28,"nonswitch",1,7.57660976697304,"Younger","candle","Dual",1,0.5,-0.5,1952,"3nonswitchL2"
"522",3,"L2","French","oeil",32,"nonswitch",1,7.4537356688225,"Younger","eye","Dual",1,0.5,-0.5,1726.3,"3nonswitchL2"
"523",3,"L2","French","tasse",33,"nonswitch",1,7.21825014949907,"Younger","cup","Dual",1,0.5,-0.5,1364.1,"3nonswitchL2"
"529",3,"L2","French","balai",39,"nonswitch",1,7.09348767889817,"Younger","broom","Dual",1,0.5,-0.5,1204.1,"3nonswitchL2"
"531",3,"L2","French","valise",42,"nonswitch",1,6.95816318152598,"Younger","suitcase","Dual",1,0.5,-0.5,1051.7,"3nonswitchL2"
"537",3,"L2","French","manteau",48,"nonswitch",1,6.94428005366451,"Younger","coat","Dual",1,0.5,-0.5,1037.2,"3nonswitchL2"
"538",3,"L2","French","cadeau",49,"nonswitch",1,7.59458253079726,"Younger","present","Dual",1,0.5,-0.5,1987.4,"3nonswitchL2"
"545",3,"L2","French","avion",56,"nonswitch",1,7.25700270709207,"Younger","plane","Dual",1,0.5,-0.5,1418,"3nonswitchL2"
"546",3,"L2","French","fraise",57,"nonswitch",1,7.10840779246081,"Younger","strawberry","Dual",1,0.5,-0.5,1222.2,"3nonswitchL2"
"550",3,"L2","French","jouet",63,"nonswitch",1,7.17441798420984,"Younger","toy","Dual",1,0.5,-0.5,1305.6,"3nonswitchL2"
"552",3,"L2","French","savon",67,"nonswitch",1,6.77490936564871,"Younger","soap","Dual",1,0.5,-0.5,875.6,"3nonswitchL2"
"553",3,"L2","French","cheval",68,"nonswitch",1,7.09672137849476,"Younger","horse","Dual",1,0.5,-0.5,1208,"3nonswitchL2"
"562",3,"L2","French","gateau",79,"nonswitch",1,7.10109919905783,"Younger","cake","Dual",1,0.5,-0.5,1213.3,"3nonswitchL2"
"569",3,"L2","French","gateau",87,"nonswitch",1,6.95349317065599,"Younger","cake","Dual",1,0.5,-0.5,1046.8,"3nonswitchL2"
"575",3,"L2","French","balai",95,"nonswitch",1,7.29790368297841,"Younger","broom","Dual",1,0.5,-0.5,1477.2,"3nonswitchL2"
"586",3,"L2","French","fraise",108,"nonswitch",1,6.92313638102044,"Younger","strawberry","Dual",1,0.5,-0.5,1015.5,"3nonswitchL2"
"590",3,"L2","French","stylo",112,"nonswitch",1,6.69999282970623,"Younger","pen","Dual",1,0.5,-0.5,812.4,"3nonswitchL2"
"591",3,"L2","French","savon",113,"nonswitch",1,6.95873352374677,"Younger","soap","Dual",1,0.5,-0.5,1052.3,"3nonswitchL2"
"595",3,"L2","French","valise",119,"nonswitch",1,7.02054810645726,"Younger","suitcase","Dual",1,0.5,-0.5,1119.4,"3nonswitchL2"
"597",3,"L2","French","cerveau",122,"nonswitch",1,7.28475232311078,"Younger","brain","Dual",1,0.5,-0.5,1457.9,"3nonswitchL2"
"602",3,"L2","French","cheval",129,"nonswitch",1,6.97532046514456,"Younger","horse","Dual",1,0.5,-0.5,1069.9,"3nonswitchL2"
"609",3,"L2","French","stylo",136,"nonswitch",1,6.5611720986102,"Younger","pen","Dual",1,0.5,-0.5,707.1,"3nonswitchL2"
"610",3,"L2","French","échelle",137,"nonswitch",1,6.85065568694156,"Younger","ladder","Dual",1,0.5,-0.5,944.5,"3nonswitchL2"
"613",3,"L2","French","avion",140,"nonswitch",1,7.18546277028671,"Younger","plane","Dual",1,0.5,-0.5,1320.1,"3nonswitchL2"
"616",3,"L2","French","journal",143,"nonswitch",1,6.97185620438866,"Younger","newspaper","Dual",1,0.5,-0.5,1066.2,"3nonswitchL2"
"618",3,"L2","French","couteau",147,"nonswitch",1,7.20452097016696,"Younger","knife","Dual",1,0.5,-0.5,1345.5,"3nonswitchL2"
"619",3,"L2","French","bougie",148,"nonswitch",1,7.82935190964647,"Younger","candle","Dual",1,0.5,-0.5,2513.3,"3nonswitchL2"
"628",3,"L1","English","broom",1,"SingleNaming",1,6.95234616231001,"Younger","broom","Single",1,-0.5,-0.5,1045.6,"3SingleNamingL1"
"631",3,"L1","English","ladder",2,"SingleNaming",1,6.88673591175806,"Younger","ladder","Single",1,-0.5,-0.5,979.2,"3SingleNamingL1"
"632",3,"L1","English","coat",3,"SingleNaming",1,7.42255300350053,"Younger","coat","Single",1,-0.5,-0.5,1673.3,"3SingleNamingL1"
"635",3,"L1","English","newspaper",4,"SingleNaming",1,7.28468372894811,"Younger","newspaper","Single",1,-0.5,-0.5,1457.8,"3SingleNamingL1"
"637",3,"L1","English","suitcase",5,"SingleNaming",1,7.19097742071182,"Younger","suitcase","Single",1,-0.5,-0.5,1327.4,"3SingleNamingL1"
"639",3,"L1","English","plane",6,"SingleNaming",1,7.2152399787301,"Younger","plane","Single",1,-0.5,-0.5,1360,"3SingleNamingL1"
"640",3,"L1","English","soap",7,"SingleNaming",1,6.75215354688756,"Younger","soap","Single",1,-0.5,-0.5,855.9,"3SingleNamingL1"
"643",3,"L1","English","eye",8,"SingleNaming",1,7.08246460277395,"Younger","eye","Single",1,-0.5,-0.5,1190.9,"3SingleNamingL1"
"646",3,"L1","English","trophy",10,"SingleNaming",1,7.43679403216749,"Younger","trophy","Single",1,-0.5,-0.5,1697.3,"3SingleNamingL1"
"647",3,"L1","English","teeth",11,"SingleNaming",1,6.87688361531505,"Younger","teeth","Single",1,-0.5,-0.5,969.6,"3SingleNamingL1"
"649",3,"L1","English","pen",12,"SingleNaming",1,6.56131351132343,"Younger","pen","Single",1,-0.5,-0.5,707.2,"3SingleNamingL1"
"651",3,"L1","English","toy",13,"SingleNaming",1,6.97307474510278,"Younger","toy","Single",1,-0.5,-0.5,1067.5,"3SingleNamingL1"
"652",3,"L1","English","knife",14,"SingleNaming",1,7.66505027936583,"Younger","knife","Single",1,-0.5,-0.5,2132.5,"3SingleNamingL1"
"653",3,"L1","English","cup",15,"SingleNaming",1,6.94803312548071,"Younger","cup","Single",1,-0.5,-0.5,1041.1,"3SingleNamingL1"
"655",3,"L1","English","horse",16,"SingleNaming",1,6.88305266634177,"Younger","horse","Single",1,-0.5,-0.5,975.6,"3SingleNamingL1"
"657",3,"L1","English","candle",17,"SingleNaming",1,6.82957749791811,"Younger","candle","Single",1,-0.5,-0.5,924.8,"3SingleNamingL1"
"659",3,"L1","English","brain",18,"SingleNaming",1,6.99356593539525,"Younger","brain","Single",1,-0.5,-0.5,1089.6,"3SingleNamingL1"
"661",3,"L1","English","strawberry",19,"SingleNaming",1,6.98536425830912,"Younger","strawberry","Single",1,-0.5,-0.5,1080.7,"3SingleNamingL1"
"662",3,"L1","English","cake",20,"SingleNaming",1,7.37669584337461,"Younger","cake","Single",1,-0.5,-0.5,1598.3,"3SingleNamingL1"
"664",3,"L1","English","knife",21,"SingleNaming",1,6.91234473131594,"Younger","knife","Single",1,-0.5,-0.5,1004.6,"3SingleNamingL1"
"667",3,"L1","English","present",22,"SingleNaming",1,7.54406752278954,"Younger","present","Single",1,-0.5,-0.5,1889.5,"3SingleNamingL1"
"669",3,"L1","English","horse",23,"SingleNaming",1,7.16045763253789,"Younger","horse","Single",1,-0.5,-0.5,1287.5,"3SingleNamingL1"
"671",3,"L1","English","teeth",24,"SingleNaming",1,6.97905216086417,"Younger","teeth","Single",1,-0.5,-0.5,1073.9,"3SingleNamingL1"
"674",3,"L1","English","candle",26,"SingleNaming",1,7.65358978182109,"Younger","candle","Single",1,-0.5,-0.5,2108.2,"3SingleNamingL1"
"675",3,"L1","English","brain",27,"SingleNaming",1,6.40025744530882,"Younger","brain","Single",1,-0.5,-0.5,602,"3SingleNamingL1"
"677",3,"L1","English","plane",28,"SingleNaming",1,6.69542802010178,"Younger","plane","Single",1,-0.5,-0.5,808.7,"3SingleNamingL1"
"680",3,"L1","English","suitcase",29,"SingleNaming",1,7.51779255281908,"Younger","suitcase","Single",1,-0.5,-0.5,1840.5,"3SingleNamingL1"
"681",3,"L1","English","trophy",30,"SingleNaming",1,6.85414350953349,"Younger","trophy","Single",1,-0.5,-0.5,947.8,"3SingleNamingL1"
"684",3,"L1","English","pen",31,"SingleNaming",1,6.72202792905335,"Younger","pen","Single",1,-0.5,-0.5,830.5,"3SingleNamingL1"
"686",3,"L1","English","strawberry",32,"SingleNaming",1,6.83065822859717,"Younger","strawberry","Single",1,-0.5,-0.5,925.8,"3SingleNamingL1"
"688",3,"L1","English","ladder",33,"SingleNaming",1,7.26213759686099,"Younger","ladder","Single",1,-0.5,-0.5,1425.3,"3SingleNamingL1"
"690",3,"L1","English","coat",35,"SingleNaming",1,6.78139809010561,"Younger","coat","Single",1,-0.5,-0.5,881.3,"3SingleNamingL1"
"692",3,"L1","English","toy",36,"SingleNaming",1,6.54821910276237,"Younger","toy","Single",1,-0.5,-0.5,698,"3SingleNamingL1"
"695",3,"L1","English","broom",37,"SingleNaming",1,6.99209642741589,"Younger","broom","Single",1,-0.5,-0.5,1088,"3SingleNamingL1"
"697",3,"L1","English","eye",38,"SingleNaming",1,7.26396011243625,"Younger","eye","Single",1,-0.5,-0.5,1427.9,"3SingleNamingL1"
"698",3,"L1","English","soap",39,"SingleNaming",1,7.08874261276295,"Younger","soap","Single",1,-0.5,-0.5,1198.4,"3SingleNamingL1"
"699",3,"L1","English","cup",40,"SingleNaming",1,6.5457806019485,"Younger","cup","Single",1,-0.5,-0.5,696.3,"3SingleNamingL1"
"629",3,"L2","French","cerveau",1,"SingleNaming",1,7.48065388694591,"Younger","brain","Single",1,0.5,-0.5,1773.4,"3SingleNamingL2"
"630",3,"L2","French","cheval",2,"SingleNaming",1,6.6682282484174,"Younger","horse","Single",1,0.5,-0.5,787,"3SingleNamingL2"
"634",3,"L2","French","balai",4,"SingleNaming",1,7.05996121187147,"Younger","broom","Single",1,0.5,-0.5,1164.4,"3SingleNamingL2"
"636",3,"L2","French","manteau",5,"SingleNaming",1,6.86807846182924,"Younger","coat","Single",1,0.5,-0.5,961.1,"3SingleNamingL2"
"638",3,"L2","French","savon",6,"SingleNaming",1,7.13767581457537,"Younger","soap","Single",1,0.5,-0.5,1258.5,"3SingleNamingL2"
"641",3,"L2","French","jouet",7,"SingleNaming",1,7.54406752278954,"Younger","toy","Single",1,0.5,-0.5,1889.5,"3SingleNamingL2"
"642",3,"L2","French","tasse",8,"SingleNaming",1,7.04986229560697,"Younger","cup","Single",1,0.5,-0.5,1152.7,"3SingleNamingL2"
"644",3,"L2","French","fraise",9,"SingleNaming",1,6.90143535023732,"Younger","strawberry","Single",1,0.5,-0.5,993.7,"3SingleNamingL2"
"645",3,"L2","French","couteau",10,"SingleNaming",1,7.32303869602764,"Younger","knife","Single",1,0.5,-0.5,1514.8,"3SingleNamingL2"
"648",3,"L2","French","dents",11,"SingleNaming",1,7.0184017990692,"Younger","teeth","Single",1,0.5,-0.5,1117,"3SingleNamingL2"
"650",3,"L2","French","bougie",12,"SingleNaming",1,7.54981966931277,"Younger","candle","Single",1,0.5,-0.5,1900.4,"3SingleNamingL2"
"654",3,"L2","French","gateau",15,"SingleNaming",1,7.09373679660758,"Younger","cake","Single",1,0.5,-0.5,1204.4,"3SingleNamingL2"
"656",3,"L2","French","journal",16,"SingleNaming",1,7.00859559390821,"Younger","newspaper","Single",1,0.5,-0.5,1106.1,"3SingleNamingL2"
"658",3,"L2","French","stylo",18,"SingleNaming",1,6.96394655863188,"Younger","pen","Single",1,0.5,-0.5,1057.8,"3SingleNamingL2"
"660",3,"L2","French","valise",19,"SingleNaming",1,6.83744010506711,"Younger","suitcase","Single",1,0.5,-0.5,932.1,"3SingleNamingL2"
"663",3,"L2","French","avion",20,"SingleNaming",1,7.40037619809328,"Younger","plane","Single",1,0.5,-0.5,1636.6,"3SingleNamingL2"
"665",3,"L2","French","tasse",21,"SingleNaming",1,6.92902741425768,"Younger","cup","Single",1,0.5,-0.5,1021.5,"3SingleNamingL2"
"666",3,"L2","French","balai",22,"SingleNaming",1,6.93195996767895,"Younger","broom","Single",1,0.5,-0.5,1024.5,"3SingleNamingL2"
"668",3,"L2","French","avion",23,"SingleNaming",1,6.87181717217651,"Younger","plane","Single",1,0.5,-0.5,964.7,"3SingleNamingL2"
"670",3,"L2","French","cheval",24,"SingleNaming",1,6.5457806019485,"Younger","horse","Single",1,0.5,-0.5,696.3,"3SingleNamingL2"
"672",3,"L2","French","gateau",25,"SingleNaming",1,6.8452413735929,"Younger","cake","Single",1,0.5,-0.5,939.4,"3SingleNamingL2"
"673",3,"L2","French","cadeau",26,"SingleNaming",1,7.56044498191081,"Younger","present","Single",1,0.5,-0.5,1920.7,"3SingleNamingL2"
"676",3,"L2","French","journal",27,"SingleNaming",1,6.86422127695841,"Younger","newspaper","Single",1,0.5,-0.5,957.4,"3SingleNamingL2"
"678",3,"L2","French","valise",28,"SingleNaming",1,6.80083799663606,"Younger","suitcase","Single",1,0.5,-0.5,898.6,"3SingleNamingL2"
"679",3,"L2","French","dents",29,"SingleNaming",1,7.06407503323709,"Younger","teeth","Single",1,0.5,-0.5,1169.2,"3SingleNamingL2"
"682",3,"L2","French","manteau",30,"SingleNaming",1,6.89040564064702,"Younger","coat","Single",1,0.5,-0.5,982.8,"3SingleNamingL2"
"683",3,"L2","French","stylo",31,"SingleNaming",1,6.61619904498176,"Younger","pen","Single",1,0.5,-0.5,747.1,"3SingleNamingL2"
"685",3,"L2","French","savon",32,"SingleNaming",1,6.69999282970623,"Younger","soap","Single",1,0.5,-0.5,812.4,"3SingleNamingL2"
"687",3,"L2","French","cerveau",33,"SingleNaming",1,7.06902342657826,"Younger","brain","Single",1,0.5,-0.5,1175,"3SingleNamingL2"
"689",3,"L2","French","couteau",34,"SingleNaming",1,7.41083094928807,"Younger","knife","Single",1,0.5,-0.5,1653.8,"3SingleNamingL2"
"691",3,"L2","French","bougie",35,"SingleNaming",1,7.36827659283838,"Younger","candle","Single",1,0.5,-0.5,1584.9,"3SingleNamingL2"
"693",3,"L2","French","échelle",36,"SingleNaming",1,6.90012625181765,"Younger","ladder","Single",1,0.5,-0.5,992.4,"3SingleNamingL2"
"694",3,"L2","French","fraise",37,"SingleNaming",1,6.66364342123173,"Younger","strawberry","Single",1,0.5,-0.5,783.4,"3SingleNamingL2"
"696",3,"L2","French","oeil",38,"SingleNaming",1,7.04088659158532,"Younger","eye","Single",1,0.5,-0.5,1142.4,"3SingleNamingL2"
"700",3,"L2","French","jouet",40,"SingleNaming",1,6.74358793276822,"Younger","toy","Single",1,0.5,-0.5,848.6,"3SingleNamingL2"
"724",4,"L2","German","Tasse",2,"switch",1,6.92175679861795,"Younger","cup","Dual",1,0.5,-0.5,1014.1,"4switchL2"
"728",4,"L2","German","Leiter",6,"switch",1,7.23020103137021,"Younger","ladder","Dual",1,0.5,-0.5,1380.5,"4switchL2"
"731",4,"L2","German","Zähne",9,"switch",1,7.30532261496316,"Younger","teeth","Dual",1,0.5,-0.5,1488.2,"4switchL2"
"736",4,"L2","German","Gehirn",14,"switch",1,6.90153597916822,"Younger","brain","Dual",1,0.5,-0.5,993.8,"4switchL2"
"740",4,"L2","German","Stift",18,"switch",1,7.36112126707485,"Younger","pen","Dual",1,0.5,-0.5,1573.6,"4switchL2"
"743",4,"L2","German","Kuchen",21,"switch",1,7.20012634092005,"Younger","cake","Dual",1,0.5,-0.5,1339.6,"4switchL2"
"749",4,"L2","German","Messer",27,"switch",1,6.93391023645899,"Younger","knife","Dual",1,0.5,-0.5,1026.5,"4switchL2"
"753",4,"L2","German","Besen",31,"switch",1,7.69657620961036,"Younger","broom","Dual",1,0.5,-0.5,2200.8,"4switchL2"
"757",4,"L2","German","Seife",35,"switch",1,7.01795407128021,"Younger","soap","Dual",1,0.5,-0.5,1116.5,"4switchL2"
"760",4,"L2","German","Flugzeug",38,"switch",1,7.04586368109977,"Younger","plane","Dual",1,0.5,-0.5,1148.1,"4switchL2"
"768",4,"L2","German","Kerze",47,"switch",1,7.23497051576924,"Younger","candle","Dual",1,0.5,-0.5,1387.1,"4switchL2"
"773",4,"L2","German","Auge",52,"switch",1,6.93176473144249,"Younger","eye","Dual",1,0.5,-0.5,1024.3,"4switchL2"
"776",4,"L2","German","Mantel",55,"switch",1,7.05652005224725,"Younger","coat","Dual",1,0.5,-0.5,1160.4,"4switchL2"
"780",4,"L2","German","Pokal",59,"switch",1,7.53155238140729,"Younger","trophy","Dual",1,0.5,-0.5,1866,"4switchL2"
"785",4,"L2","German","Koffer",66,"switch",1,6.94148014838376,"Younger","suitcase","Dual",1,0.5,-0.5,1034.3,"4switchL2"
"790",4,"L2","German","Geschenk",71,"switch",1,7.08832530273729,"Younger","present","Dual",1,0.5,-0.5,1197.9,"4switchL2"
"794",4,"L2","German","Zeitung",75,"switch",1,7.80571909416341,"Younger","newspaper","Dual",1,0.5,-0.5,2454.6,"4switchL2"
"797",4,"L2","German","Erdbeere",78,"switch",1,6.77548023967232,"Younger","strawberry","Dual",1,0.5,-0.5,876.1,"4switchL2"
"800",4,"L2","German","Tasse",82,"switch",1,6.84140177843212,"Younger","cup","Dual",1,0.5,-0.5,935.8,"4switchL2"
"804",4,"L2","German","Besen",86,"switch",1,7.67094145032206,"Younger","broom","Dual",1,0.5,-0.5,2145.1,"4switchL2"
"807",4,"L2","German","Geschenk",89,"switch",1,7.86407409030936,"Younger","present","Dual",1,0.5,-0.5,2602.1,"4switchL2"
"812",4,"L2","German","Gehirn",94,"switch",1,6.97166860472579,"Younger","brain","Dual",1,0.5,-0.5,1066,"4switchL2"
"816",4,"L2","German","Spielzeug",98,"switch",1,7.89539876230153,"Younger","toy","Dual",1,0.5,-0.5,2684.9,"4switchL2"
"819",4,"L2","German","Leiter",101,"switch",1,6.94764884264381,"Younger","ladder","Dual",1,0.5,-0.5,1040.7,"4switchL2"
"825",4,"L2","German","Zeitung",107,"switch",1,7.24165277523088,"Younger","newspaper","Dual",1,0.5,-0.5,1396.4,"4switchL2"
"829",4,"L2","German","Zähne",111,"switch",1,7.4899708988348,"Younger","teeth","Dual",1,0.5,-0.5,1790,"4switchL2"
"833",4,"L2","German","Erdbeere",115,"switch",1,6.87481877873587,"Younger","strawberry","Dual",1,0.5,-0.5,967.6,"4switchL2"
"836",4,"L2","German","Messer",118,"switch",1,7.02438209091386,"Younger","knife","Dual",1,0.5,-0.5,1123.7,"4switchL2"
"844",4,"L2","German","Pokal",127,"switch",1,7.25375342825675,"Younger","trophy","Dual",1,0.5,-0.5,1413.4,"4switchL2"
"849",4,"L2","German","Auge",132,"switch",1,6.72886781892247,"Younger","eye","Dual",1,0.5,-0.5,836.2,"4switchL2"
"852",4,"L2","German","Kerze",135,"switch",1,7.19960366030333,"Younger","candle","Dual",1,0.5,-0.5,1338.9,"4switchL2"
"856",4,"L2","German","Koffer",139,"switch",1,7.31235334465095,"Younger","suitcase","Dual",1,0.5,-0.5,1498.7,"4switchL2"
"859",4,"L2","German","Seife",142,"switch",1,7.34226125587472,"Younger","soap","Dual",1,0.5,-0.5,1544.2,"4switchL2"
"863",4,"L2","German","Flugzeug",146,"switch",1,7.06450258465666,"Younger","plane","Dual",1,0.5,-0.5,1169.7,"4switchL2"
"868",4,"L2","German","Spielzeug",151,"switch",1,7.25134498337221,"Younger","toy","Dual",1,0.5,-0.5,1410,"4switchL2"
"872",4,"L2","German","Pferd",155,"switch",1,6.94012565901259,"Younger","horse","Dual",1,0.5,-0.5,1032.9,"4switchL2"
"875",4,"L2","German","Mantel",158,"switch",1,6.77719090896102,"Younger","coat","Dual",1,0.5,-0.5,877.6,"4switchL2"
"725",4,"L1","English","horse",3,"switch",1,7.34005704104386,"Younger","horse","Dual",1,-0.5,-0.5,1540.8,"4switchL1"
"730",4,"L1","English","cake",8,"switch",1,7.18659840276671,"Younger","cake","Dual",1,-0.5,-0.5,1321.6,"4switchL1"
"732",4,"L1","English","soap",10,"switch",1,6.88653164253051,"Younger","soap","Dual",1,-0.5,-0.5,979,"4switchL1"
"738",4,"L1","English","brain",16,"switch",1,6.85677772421727,"Younger","brain","Dual",1,-0.5,-0.5,950.3,"4switchL1"
"741",4,"L1","English","toy",19,"switch",1,6.99273960288713,"Younger","toy","Dual",1,-0.5,-0.5,1088.7,"4switchL1"
"745",4,"L1","English","trophy",23,"switch",1,6.87708986467125,"Younger","trophy","Dual",1,-0.5,-0.5,969.8,"4switchL1"
"751",4,"L1","English","teeth",29,"switch",1,6.99209642741589,"Younger","teeth","Dual",1,-0.5,-0.5,1088,"4switchL1"
"756",4,"L1","English","suitcase",34,"switch",1,7.06757557042958,"Younger","suitcase","Dual",1,-0.5,-0.5,1173.3,"4switchL1"
"758",4,"L1","English","present",36,"switch",1,6.87057248785442,"Younger","present","Dual",1,-0.5,-0.5,963.5,"4switchL1"
"762",4,"L1","English","coat",40,"switch",1,7.08924315502751,"Younger","coat","Dual",1,-0.5,-0.5,1199,"4switchL1"
"764",4,"L1","English","cup",43,"switch",1,7.05479502163145,"Younger","cup","Dual",1,-0.5,-0.5,1158.4,"4switchL1"
"771",4,"L1","English","eye",50,"switch",1,7.2208857758875,"Younger","eye","Dual",1,-0.5,-0.5,1367.7,"4switchL1"
"774",4,"L1","English","newspaper",53,"switch",1,6.93828448401696,"Younger","newspaper","Dual",1,-0.5,-0.5,1031,"4switchL1"
"779",4,"L1","English","knife",58,"switch",1,7.13505020141882,"Younger","knife","Dual",1,-0.5,-0.5,1255.2,"4switchL1"
"782",4,"L1","English","present",61,"switch",1,6.85393247228463,"Younger","present","Dual",1,-0.5,-0.5,947.6,"4switchL1"
"784",4,"L1","English","candle",65,"switch",1,7.34426675549563,"Younger","candle","Dual",1,-0.5,-0.5,1547.3,"4switchL1"
"788",4,"L1","English","plane",69,"switch",1,7.32416032712864,"Younger","plane","Dual",1,-0.5,-0.5,1516.5,"4switchL1"
"793",4,"L1","English","broom",74,"switch",1,7.27392500448266,"Younger","broom","Dual",1,-0.5,-0.5,1442.2,"4switchL1"
"795",4,"L1","English","strawberry",76,"switch",1,7.05064276653068,"Younger","strawberry","Dual",1,-0.5,-0.5,1153.6,"4switchL1"
"799",4,"L1","English","ladder",80,"switch",1,6.98776721695152,"Younger","ladder","Dual",1,-0.5,-0.5,1083.3,"4switchL1"
"801",4,"L1","English","pen",83,"switch",1,6.93449457617176,"Younger","pen","Dual",1,-0.5,-0.5,1027.1,"4switchL1"
"806",4,"L1","English","strawberry",88,"switch",1,6.83679619004164,"Younger","strawberry","Dual",1,-0.5,-0.5,931.5,"4switchL1"
"808",4,"L1","English","pen",90,"switch",1,6.85160811835914,"Younger","pen","Dual",1,-0.5,-0.5,945.4,"4switchL1"
"814",4,"L1","English","suitcase",96,"switch",1,6.71441321890472,"Younger","suitcase","Dual",1,-0.5,-0.5,824.2,"4switchL1"
"817",4,"L1","English","eye",99,"switch",1,7.01723728959913,"Younger","eye","Dual",1,-0.5,-0.5,1115.7,"4switchL1"
"821",4,"L1","English","brain",103,"switch",1,7.53588382316763,"Younger","brain","Dual",1,-0.5,-0.5,1874.1,"4switchL1"
"827",4,"L1","English","teeth",109,"switch",1,7.31827426139298,"Younger","teeth","Dual",1,-0.5,-0.5,1507.6,"4switchL1"
"832",4,"L1","English","horse",114,"switch",1,7.38212436573751,"Younger","horse","Dual",1,-0.5,-0.5,1607,"4switchL1"
"834",4,"L1","English","candle",116,"switch",1,6.72178708126799,"Younger","candle","Dual",1,-0.5,-0.5,830.3,"4switchL1"
"838",4,"L1","English","cup",120,"switch",1,6.84758055594607,"Younger","cup","Dual",1,-0.5,-0.5,941.6,"4switchL1"
"840",4,"L1","English","knife",123,"switch",1,7.07072410726028,"Younger","knife","Dual",1,-0.5,-0.5,1177,"4switchL1"
"850",4,"L1","English","broom",133,"switch",1,6.93605114813698,"Younger","broom","Dual",1,-0.5,-0.5,1028.7,"4switchL1"
"855",4,"L1","English","toy",138,"switch",1,7.15164219143425,"Younger","toy","Dual",1,-0.5,-0.5,1276.2,"4switchL1"
"858",4,"L1","English","ladder",141,"switch",1,6.7540211790401,"Younger","ladder","Dual",1,-0.5,-0.5,857.5,"4switchL1"
"862",4,"L1","English","trophy",145,"switch",1,7.49203580455497,"Younger","trophy","Dual",1,-0.5,-0.5,1793.7,"4switchL1"
"866",4,"L1","English","newspaper",149,"switch",1,6.77502356652818,"Younger","newspaper","Dual",1,-0.5,-0.5,875.7,"4switchL1"
"871",4,"L1","English","soap",154,"switch",1,7.24515565617617,"Younger","soap","Dual",1,-0.5,-0.5,1401.3,"4switchL1"
"873",4,"L1","English","plane",156,"switch",1,7.26150595140362,"Younger","plane","Dual",1,-0.5,-0.5,1424.4,"4switchL1"
"877",4,"L1","English","coat",160,"switch",1,7.18485657188973,"Younger","coat","Dual",1,-0.5,-0.5,1319.3,"4switchL1"
"726",4,"L1","English","eye",4,"nonswitch",1,6.94022246911964,"Younger","eye","Dual",1,-0.5,-0.5,1033,"4nonswitchL1"
"727",4,"L1","English","suitcase",5,"nonswitch",1,7.31688034792179,"Younger","suitcase","Dual",1,-0.5,-0.5,1505.5,"4nonswitchL1"
"733",4,"L1","English","candle",11,"nonswitch",1,7.16958093688869,"Younger","candle","Dual",1,-0.5,-0.5,1299.3,"4nonswitchL1"
"734",4,"L1","English","toy",12,"nonswitch",1,7.13145867355486,"Younger","toy","Dual",1,-0.5,-0.5,1250.7,"4nonswitchL1"
"735",4,"L1","English","teeth",13,"nonswitch",1,7.00751011211913,"Younger","teeth","Dual",1,-0.5,-0.5,1104.9,"4nonswitchL1"
"739",4,"L1","English","knife",17,"nonswitch",1,6.80594401283545,"Younger","knife","Dual",1,-0.5,-0.5,903.2,"4nonswitchL1"
"742",4,"L1","English","cup",20,"nonswitch",1,6.94215670569947,"Younger","cup","Dual",1,-0.5,-0.5,1035,"4nonswitchL1"
"746",4,"L1","English","present",24,"nonswitch",1,6.83754738393864,"Younger","present","Dual",1,-0.5,-0.5,932.2,"4nonswitchL1"
"747",4,"L1","English","ladder",25,"nonswitch",1,6.91314075125848,"Younger","ladder","Dual",1,-0.5,-0.5,1005.4,"4nonswitchL1"
"748",4,"L1","English","horse",26,"nonswitch",1,6.88683803072675,"Younger","horse","Dual",1,-0.5,-0.5,979.3,"4nonswitchL1"
"752",4,"L1","English","trophy",30,"nonswitch",1,6.85667248875282,"Younger","trophy","Dual",1,-0.5,-0.5,950.2,"4nonswitchL1"
"759",4,"L1","English","strawberry",37,"nonswitch",1,7.27073033546935,"Younger","strawberry","Dual",1,-0.5,-0.5,1437.6,"4nonswitchL1"
"765",4,"L1","English","newspaper",44,"nonswitch",1,6.88734846920447,"Younger","newspaper","Dual",1,-0.5,-0.5,979.8,"4nonswitchL1"
"766",4,"L1","English","coat",45,"nonswitch",1,7.16324984718067,"Younger","coat","Dual",1,-0.5,-0.5,1291.1,"4nonswitchL1"
"767",4,"L1","English","cake",46,"nonswitch",1,7.00922824791277,"Younger","cake","Dual",1,-0.5,-0.5,1106.8,"4nonswitchL1"
"772",4,"L1","English","plane",51,"nonswitch",1,7.23352761818105,"Younger","plane","Dual",1,-0.5,-0.5,1385.1,"4nonswitchL1"
"775",4,"L1","English","soap",54,"nonswitch",1,6.88233490163523,"Younger","soap","Dual",1,-0.5,-0.5,974.9,"4nonswitchL1"
"796",4,"L1","English","broom",77,"nonswitch",1,6.73625496081977,"Younger","broom","Dual",1,-0.5,-0.5,842.4,"4nonswitchL1"
"802",4,"L1","English","present",84,"nonswitch",1,7.01211529430638,"Younger","present","Dual",1,-0.5,-0.5,1110,"4nonswitchL1"
"803",4,"L1","English","teeth",85,"nonswitch",1,6.91711137390616,"Younger","teeth","Dual",1,-0.5,-0.5,1009.4,"4nonswitchL1"
"809",4,"L1","English","toy",91,"nonswitch",1,7.12351161186233,"Younger","toy","Dual",1,-0.5,-0.5,1240.8,"4nonswitchL1"
"810",4,"L1","English","coat",92,"nonswitch",1,7.13145867355486,"Younger","coat","Dual",1,-0.5,-0.5,1250.7,"4nonswitchL1"
"811",4,"L1","English","suitcase",93,"nonswitch",1,6.74205482320442,"Younger","suitcase","Dual",1,-0.5,-0.5,847.3,"4nonswitchL1"
"815",4,"L1","English","cup",97,"nonswitch",1,7.1420365747068,"Younger","cup","Dual",1,-0.5,-0.5,1264,"4nonswitchL1"
"818",4,"L1","English","broom",100,"nonswitch",1,6.79099671837194,"Younger","broom","Dual",1,-0.5,-0.5,889.8,"4nonswitchL1"
"822",4,"L1","English","newspaper",104,"nonswitch",1,6.7696419768525,"Younger","newspaper","Dual",1,-0.5,-0.5,871,"4nonswitchL1"
"823",4,"L1","English","eye",105,"nonswitch",1,6.76676758568116,"Younger","eye","Dual",1,-0.5,-0.5,868.5,"4nonswitchL1"
"824",4,"L1","English","strawberry",106,"nonswitch",1,6.6555690422152,"Younger","strawberry","Dual",1,-0.5,-0.5,777.1,"4nonswitchL1"
"828",4,"L1","English","ladder",110,"nonswitch",1,7.00242889258482,"Younger","ladder","Dual",1,-0.5,-0.5,1099.3,"4nonswitchL1"
"835",4,"L1","English","horse",117,"nonswitch",1,6.95711670851986,"Younger","horse","Dual",1,-0.5,-0.5,1050.6,"4nonswitchL1"
"841",4,"L1","English","cake",124,"nonswitch",1,7.16006920759613,"Younger","cake","Dual",1,-0.5,-0.5,1287,"4nonswitchL1"
"842",4,"L1","English","brain",125,"nonswitch",1,6.93799346204275,"Younger","brain","Dual",1,-0.5,-0.5,1030.7,"4nonswitchL1"
"843",4,"L1","English","soap",126,"nonswitch",1,7.12084849444285,"Younger","soap","Dual",1,-0.5,-0.5,1237.5,"4nonswitchL1"
"848",4,"L1","English","candle",131,"nonswitch",1,6.80727174040381,"Younger","candle","Dual",1,-0.5,-0.5,904.4,"4nonswitchL1"
"851",4,"L1","English","trophy",134,"nonswitch",1,7.22737196996426,"Younger","trophy","Dual",1,-0.5,-0.5,1376.6,"4nonswitchL1"
"874",4,"L1","English","pen",157,"nonswitch",1,7.11720550316434,"Younger","pen","Dual",1,-0.5,-0.5,1233,"4nonswitchL1"
"729",4,"L2","German","Gehirn",7,"nonswitch",1,7.41300538841494,"Younger","brain","Dual",1,0.5,-0.5,1657.4,"4nonswitchL2"
"737",4,"L2","German","Zähne",15,"nonswitch",1,6.81903334892133,"Younger","teeth","Dual",1,0.5,-0.5,915.1,"4nonswitchL2"
"744",4,"L2","German","Zeitung",22,"nonswitch",1,7.31161910572333,"Younger","newspaper","Dual",1,0.5,-0.5,1497.6,"4nonswitchL2"
"750",4,"L2","German","Kerze",28,"nonswitch",1,7.61020901886238,"Younger","candle","Dual",1,0.5,-0.5,2018.7,"4nonswitchL2"
"754",4,"L2","German","Auge",32,"nonswitch",1,7.07732926295359,"Younger","eye","Dual",1,0.5,-0.5,1184.8,"4nonswitchL2"
"755",4,"L2","German","Tasse",33,"nonswitch",1,7.25035158231131,"Younger","cup","Dual",1,0.5,-0.5,1408.6,"4nonswitchL2"
"761",4,"L2","German","Besen",39,"nonswitch",1,6.88550967003482,"Younger","broom","Dual",1,0.5,-0.5,978,"4nonswitchL2"
"763",4,"L2","German","Koffer",42,"nonswitch",1,7.45657008865216,"Younger","suitcase","Dual",1,0.5,-0.5,1731.2,"4nonswitchL2"
"769",4,"L2","German","Mantel",48,"nonswitch",1,7.07808859646402,"Younger","coat","Dual",1,0.5,-0.5,1185.7,"4nonswitchL2"
"770",4,"L2","German","Geschenk",49,"nonswitch",1,7.6664092617442,"Younger","present","Dual",1,0.5,-0.5,2135.4,"4nonswitchL2"
"777",4,"L2","German","Flugzeug",56,"nonswitch",1,6.9071550989101,"Younger","plane","Dual",1,0.5,-0.5,999.4,"4nonswitchL2"
"778",4,"L2","German","Erdbeere",57,"nonswitch",1,6.93000588791696,"Younger","strawberry","Dual",1,0.5,-0.5,1022.5,"4nonswitchL2"
"781",4,"L2","German","Spielzeug",60,"nonswitch",1,7.26403014289953,"Younger","toy","Dual",1,0.5,-0.5,1428,"4nonswitchL2"
"783",4,"L2","German","Leiter",64,"nonswitch",1,6.89385917379003,"Younger","ladder","Dual",1,0.5,-0.5,986.2,"4nonswitchL2"
"786",4,"L2","German","Seife",67,"nonswitch",1,6.77810207075527,"Younger","soap","Dual",1,0.5,-0.5,878.4,"4nonswitchL2"
"787",4,"L2","German","Pferd",68,"nonswitch",1,6.98841318199959,"Younger","horse","Dual",1,0.5,-0.5,1084,"4nonswitchL2"
"791",4,"L2","German","Pokal",72,"nonswitch",1,7.42225414811442,"Younger","trophy","Dual",1,0.5,-0.5,1672.8,"4nonswitchL2"
"792",4,"L2","German","Messer",73,"nonswitch",1,7.08489677573455,"Younger","knife","Dual",1,0.5,-0.5,1193.8,"4nonswitchL2"
"798",4,"L2","German","Kuchen",79,"nonswitch",1,7.21037522379812,"Younger","cake","Dual",1,0.5,-0.5,1353.4,"4nonswitchL2"
"805",4,"L2","German","Kuchen",87,"nonswitch",1,6.61539561697924,"Younger","cake","Dual",1,0.5,-0.5,746.5,"4nonswitchL2"
"813",4,"L2","German","Besen",95,"nonswitch",1,7.21443082792645,"Younger","broom","Dual",1,0.5,-0.5,1358.9,"4nonswitchL2"
"820",4,"L2","German","Pokal",102,"nonswitch",1,7.0713186628475,"Younger","trophy","Dual",1,0.5,-0.5,1177.7,"4nonswitchL2"
"826",4,"L2","German","Erdbeere",108,"nonswitch",1,7.1675007327409,"Younger","strawberry","Dual",1,0.5,-0.5,1296.6,"4nonswitchL2"
"830",4,"L2","German","Stift",112,"nonswitch",1,7.70106448644106,"Younger","pen","Dual",1,0.5,-0.5,2210.7,"4nonswitchL2"
"831",4,"L2","German","Seife",113,"nonswitch",1,7.71181752011324,"Younger","soap","Dual",1,0.5,-0.5,2234.6,"4nonswitchL2"
"837",4,"L2","German","Koffer",119,"nonswitch",1,7.2254814727823,"Younger","suitcase","Dual",1,0.5,-0.5,1374,"4nonswitchL2"
"839",4,"L2","German","Gehirn",122,"nonswitch",1,6.75297106518127,"Younger","brain","Dual",1,0.5,-0.5,856.6,"4nonswitchL2"
"845",4,"L2","German","Tasse",128,"nonswitch",1,6.87647098894237,"Younger","cup","Dual",1,0.5,-0.5,969.2,"4nonswitchL2"
"846",4,"L2","German","Pferd",129,"nonswitch",1,7.23439360654433,"Younger","horse","Dual",1,0.5,-0.5,1386.3,"4nonswitchL2"
"853",4,"L2","German","Stift",136,"nonswitch",1,6.91899191090813,"Younger","pen","Dual",1,0.5,-0.5,1011.3,"4nonswitchL2"
"854",4,"L2","German","Leiter",137,"nonswitch",1,6.99347415438467,"Younger","ladder","Dual",1,0.5,-0.5,1089.5,"4nonswitchL2"
"857",4,"L2","German","Flugzeug",140,"nonswitch",1,6.99273960288713,"Younger","plane","Dual",1,0.5,-0.5,1088.7,"4nonswitchL2"
"860",4,"L2","German","Zeitung",143,"nonswitch",1,7.23749058766492,"Younger","newspaper","Dual",1,0.5,-0.5,1390.6,"4nonswitchL2"
"861",4,"L2","German","Mantel",144,"nonswitch",1,7.00261080999482,"Younger","coat","Dual",1,0.5,-0.5,1099.5,"4nonswitchL2"
"864",4,"L2","German","Messer",147,"nonswitch",1,6.81947036411457,"Younger","knife","Dual",1,0.5,-0.5,915.5,"4nonswitchL2"
"865",4,"L2","German","Kerze",148,"nonswitch",1,6.99108488656914,"Younger","candle","Dual",1,0.5,-0.5,1086.9,"4nonswitchL2"
"869",4,"L2","German","Geschenk",152,"nonswitch",1,7.05367215388229,"Younger","present","Dual",1,0.5,-0.5,1157.1,"4nonswitchL2"
"870",4,"L2","German","Zähne",153,"nonswitch",1,7.02028006982398,"Younger","teeth","Dual",1,0.5,-0.5,1119.1,"4nonswitchL2"
"876",4,"L2","German","Auge",159,"nonswitch",1,7.14187833433935,"Younger","eye","Dual",1,0.5,-0.5,1263.8,"4nonswitchL2"
"878",4,"L1","English","broom",1,"SingleNaming",1,7.02045876889522,"Younger","broom","Single",1,-0.5,-0.5,1119.3,"4SingleNamingL1"
"880",4,"L1","English","ladder",2,"SingleNaming",1,6.54850559467094,"Younger","ladder","Single",1,-0.5,-0.5,698.2,"4SingleNamingL1"
"883",4,"L1","English","coat",3,"SingleNaming",1,7.00233792146808,"Younger","coat","Single",1,-0.5,-0.5,1099.2,"4SingleNamingL1"
"884",4,"L1","English","newspaper",4,"SingleNaming",1,6.61378682188765,"Younger","newspaper","Single",1,-0.5,-0.5,745.3,"4SingleNamingL1"
"886",4,"L1","English","suitcase",5,"SingleNaming",1,6.91869521902047,"Younger","suitcase","Single",1,-0.5,-0.5,1011,"4SingleNamingL1"
"888",4,"L1","English","plane",6,"SingleNaming",1,6.62632031929082,"Younger","plane","Single",1,-0.5,-0.5,754.7,"4SingleNamingL1"
"890",4,"L1","English","soap",7,"SingleNaming",1,6.51115079930617,"Younger","soap","Single",1,-0.5,-0.5,672.6,"4SingleNamingL1"
"892",4,"L1","English","eye",8,"SingleNaming",1,6.71441321890472,"Younger","eye","Single",1,-0.5,-0.5,824.2,"4SingleNamingL1"
