participant,Item,Rule,Response,Trial,TrialType,accuracy,rt,Agegroup,Context,accuracy01
30,broom,OBJECT,broom,1,SingleNaming,0,X,Older,Single,0
54,brain,ACTION,think,1,SingleNaming,0,X,Older,Single,0
77,teeth,ACTION,brush,1,SingleNaming,0,X,Younger,Single,0
83,brain,ACTION,think,1,SingleNaming,0,X,Older,Single,0
87,brain,ACTION,think,1,SingleNaming,0,X,Younger,Single,0
100,knife,ACTION,cut,2,nonswitch,0,X,Older,Dual,0
5,horse,ACTION,ride,2,SingleNaming,0,X,Younger,Single,0
5,ladder,OBJECT,ladder,2,SingleNaming,0,X,Younger,Single,0
15,strawberry,ACTION,eat,2,SingleNaming,0,X,Younger,Single,0
17,ladder,OBJECT,ladder,2,SingleNaming,0,X,Younger,Single,0
20,strawberry,ACTION,eat,2,SingleNaming,0,X,Younger,Single,0
39,candle,OBJECT,candle,2,SingleNaming,0,X,Younger,Single,0
46,candle,OBJECT,candle,2,SingleNaming,0,X,Older,Single,0
54,ladder,OBJECT,ladder,2,SingleNaming,0,X,Older,Single,0
67,horse,ACTION,ride,2,SingleNaming,0,X,Younger,Single,0
83,horse,ACTION,ride,2,SingleNaming,0,X,Older,Single,0
91,candle,OBJECT,candle,2,SingleNaming,0,X,Older,Single,0
7,horse,OBJECT,horse,3,switch,0,X,Younger,Dual,0
54,horse,OBJECT,horse,3,switch,0,X,Older,Dual,0
16,eye,ACTION,see,3,SingleNaming,0,X,Younger,Single,0
28,suitcase,OBJECT,suitcase,3,SingleNaming,0,X,Older,Single,0
29,eye,ACTION,see,3,SingleNaming,0,X,Older,Single,0
30,coat,OBJECT,coat,3,SingleNaming,0,X,Older,Single,0
35,eye,ACTION,see,3,SingleNaming,0,X,Older,Single,0
83,eye,ACTION,see,3,SingleNaming,0,X,Older,Single,0
86,trophy,OBJECT,trophy,4,nonswitch,0,X,Older,Dual,0
12,broom,ACTION,sweep,4,SingleNaming,0,X,Younger,Single,0
50,horse,OBJECT,horse,4,SingleNaming,0,X,Older,Single,0
83,broom,ACTION,sweep,4,SingleNaming,0,X,Older,Single,0
5,suitcase,OBJECT,suitcase,5,nonswitch,0,X,Younger,Dual,0
25,soap,OBJECT,soap,5,SingleNaming,0,X,Older,Single,0
28,soap,OBJECT,soap,5,SingleNaming,0,X,Older,Single,0
54,coat,ACTION,wear,5,SingleNaming,0,X,Older,Single,0
83,coat,ACTION,wear,5,SingleNaming,0,X,Older,Single,0
91,soap,OBJECT,soap,5,SingleNaming,0,X,Older,Single,0
100,soap,OBJECT,soap,5,SingleNaming,0,X,Older,Single,0
48,toy,ACTION,play,6,switch,0,X,Older,Dual,0
54,ladder,ACTION,climb,6,switch,0,X,Older,Dual,0
5,soap,ACTION,wash,6,SingleNaming,0,X,Younger,Single,0
13,soap,ACTION,wash,6,SingleNaming,0,X,Younger,Single,0
23,pen,OBJECT,pen,6,SingleNaming,0,X,Younger,Single,0
23,present,ACTION,give,6,SingleNaming,0,X,Younger,Single,0
29,soap,ACTION,wash,6,SingleNaming,0,X,Older,Single,0
83,soap,ACTION,wash,6,SingleNaming,0,X,Older,Single,0
96,pen,OBJECT,pen,6,SingleNaming,0,X,Older,Single,0
15,plane,ACTION,fly,7,nonswitch,0,X,Younger,Dual,0
23,newspaper,OBJECT,newspaper,7,SingleNaming,0,X,Younger,Single,0
29,soap,OBJECT,soap,7,SingleNaming,0,X,Older,Single,0
34,soap,OBJECT,soap,7,SingleNaming,0,X,Older,Single,0
83,toy,ACTION,play,7,SingleNaming,0,X,Older,Single,0
23,cup,OBJECT,cup,8,SingleNaming,0,X,Younger,Single,0
54,eye,OBJECT,eye,8,SingleNaming,0,X,Older,Single,0
1,cup,ACTION,drink,9,switch,0,X,Younger,Dual,0
5,teeth,ACTION,brush,9,switch,0,X,Younger,Dual,0
8,teeth,ACTION,brush,9,switch,0,X,Younger,Dual,0
16,teeth,ACTION,brush,9,switch,0,X,Younger,Dual,0
22,teeth,ACTION,brush,9,switch,0,X,Younger,Dual,0
46,cup,ACTION,drink,9,switch,0,X,Older,Dual,0
47,teeth,ACTION,brush,9,switch,0,X,Younger,Dual,0
91,cup,ACTION,drink,9,switch,0,X,Older,Dual,0
5,present,OBJECT,present,9,SingleNaming,0,X,Younger,Single,0
28,pen,ACTION,write,9,SingleNaming,0,X,Older,Single,0
5,soap,OBJECT,soap,10,switch,0,X,Younger,Dual,0
15,cake,ACTION,bake,10,nonswitch,0,X,Younger,Dual,0
23,cake,ACTION,bake,10,nonswitch,0,X,Younger,Dual,0
29,soap,OBJECT,soap,10,switch,0,X,Older,Dual,0
34,soap,OBJECT,soap,10,switch,0,X,Older,Dual,0
38,cake,ACTION,bake,10,nonswitch,0,X,Older,Dual,0
43,soap,OBJECT,soap,10,switch,0,X,Younger,Dual,0
48,cake,ACTION,bake,10,nonswitch,0,X,Older,Dual,0
53,cake,ACTION,bake,10,nonswitch,0,X,Younger,Dual,0
58,cake,ACTION,bake,10,nonswitch,0,X,Younger,Dual,0
72,cake,ACTION,bake,10,nonswitch,0,X,Older,Dual,0
91,cake,ACTION,bake,10,nonswitch,0,X,Older,Dual,0
96,cake,ACTION,bake,10,nonswitch,0,X,Older,Dual,0
47,knife,ACTION,cut,10,SingleNaming,0,X,Younger,Single,0
91,coat,OBJECT,coat,10,SingleNaming,0,X,Older,Single,0
96,coat,OBJECT,coat,10,SingleNaming,0,X,Older,Single,0
47,candle,OBJECT,candle,11,nonswitch,0,X,Younger,Dual,0
50,teeth,OBJECT,teeth,11,switch,0,X,Older,Dual,0
58,teeth,OBJECT,teeth,11,switch,0,X,Younger,Dual,0
5,teeth,ACTION,brush,11,SingleNaming,0,X,Younger,Single,0
5,teeth,OBJECT,teeth,11,SingleNaming,0,X,Younger,Single,0
30,teeth,ACTION,brush,11,SingleNaming,0,X,Older,Single,0
34,teeth,ACTION,brush,11,SingleNaming,0,X,Older,Single,0
45,teeth,ACTION,brush,11,SingleNaming,0,X,Younger,Single,0
47,teeth,ACTION,brush,11,SingleNaming,0,X,Younger,Single,0
54,teeth,ACTION,brush,11,SingleNaming,0,X,Older,Single,0
74,teeth,ACTION,brush,11,SingleNaming,0,X,Older,Single,0
75,teeth,ACTION,brush,11,SingleNaming,0,X,Younger,Single,0
89,teeth,ACTION,brush,11,SingleNaming,0,X,Younger,Single,0
12,toy,OBJECT,toy,12,nonswitch,0,X,Younger,Dual,0
13,candle,ACTION,light,12,SingleNaming,0,X,Younger,Single,0
36,candle,ACTION,light,12,SingleNaming,0,X,Older,Single,0
45,pen,OBJECT,pen,12,SingleNaming,0,X,Younger,Single,0
45,candle,ACTION,light,12,SingleNaming,0,X,Younger,Single,0
54,candle,ACTION,light,12,SingleNaming,0,X,Older,Single,0
55,coat,ACTION,wear,12,SingleNaming,0,X,Younger,Single,0
58,trophy,OBJECT,trophy,12,SingleNaming,0,X,Younger,Single,0
74,candle,ACTION,light,12,SingleNaming,0,X,Older,Single,0
79,candle,ACTION,light,12,SingleNaming,0,X,Older,Single,0
83,candle,ACTION,light,12,SingleNaming,0,X,Older,Single,0
89,candle,ACTION,light,12,SingleNaming,0,X,Younger,Single,0
5,teeth,OBJECT,teeth,13,nonswitch,0,X,Younger,Dual,0
47,teeth,OBJECT,teeth,13,nonswitch,0,X,Younger,Dual,0
45,toy,OBJECT,toy,13,SingleNaming,0,X,Younger,Single,0
83,ladder,ACTION,climb,13,SingleNaming,0,X,Older,Single,0
95,candle,OBJECT,candle,14,switch,0,X,Older,Dual,0
28,cake,OBJECT,cake,14,SingleNaming,0,X,Older,Single,0
34,trophy,ACTION,win,14,SingleNaming,0,X,Older,Single,0
83,trophy,ACTION,win,14,SingleNaming,0,X,Older,Single,0
5,teeth,ACTION,brush,15,nonswitch,0,X,Younger,Dual,0
16,teeth,ACTION,brush,15,nonswitch,0,X,Younger,Dual,0
34,teeth,ACTION,brush,15,nonswitch,0,X,Older,Dual,0
47,teeth,ACTION,brush,15,nonswitch,0,X,Younger,Dual,0
67,teeth,ACTION,brush,15,nonswitch,0,X,Younger,Dual,0
3,cake,ACTION,bake,15,SingleNaming,0,X,Younger,Single,0
13,cup,OBJECT,cup,15,SingleNaming,0,X,Younger,Single,0
16,cake,ACTION,bake,15,SingleNaming,0,X,Younger,Single,0
19,cake,ACTION,bake,15,SingleNaming,0,X,Younger,Single,0
22,cake,ACTION,bake,15,SingleNaming,0,X,Younger,Single,0
28,teeth,OBJECT,teeth,15,SingleNaming,0,X,Older,Single,0
31,teeth,OBJECT,teeth,15,SingleNaming,0,X,Older,Single,0
42,cake,ACTION,bake,15,SingleNaming,0,X,Older,Single,0
45,cup,OBJECT,cup,15,SingleNaming,0,X,Younger,Single,0
47,cake,ACTION,bake,15,SingleNaming,0,X,Younger,Single,0
61,cake,ACTION,bake,15,SingleNaming,0,X,Younger,Single,0
78,cake,ACTION,bake,15,SingleNaming,0,X,Older,Single,0
89,cake,ACTION,bake,15,SingleNaming,0,X,Younger,Single,0
1,cake,ACTION,bake,16,switch,0,X,Younger,Dual,0
47,brain,OBJECT,brain,16,switch,0,X,Younger,Dual,0
53,cake,ACTION,bake,16,switch,0,X,Younger,Dual,0
82,cake,ACTION,bake,16,switch,0,X,Younger,Dual,0
91,cake,ACTION,bake,16,switch,0,X,Older,Dual,0
28,present,OBJECT,present,16,SingleNaming,0,X,Older,Single,0
47,newspaper,ACTION,read,16,SingleNaming,0,X,Younger,Single,0
85,newspaper,ACTION,read,16,SingleNaming,0,X,Older,Single,0
96,present,OBJECT,present,16,SingleNaming,0,X,Older,Single,0
9,teeth,ACTION,brush,17,nonswitch,0,X,Younger,Dual,0
15,teeth,ACTION,brush,17,nonswitch,0,X,Younger,Dual,0
21,teeth,ACTION,brush,17,nonswitch,0,X,Younger,Dual,0
38,teeth,ACTION,brush,17,nonswitch,0,X,Older,Dual,0
58,teeth,ACTION,brush,17,nonswitch,0,X,Younger,Dual,0
3,candle,OBJECT,candle,17,SingleNaming,0,X,Younger,Single,0
5,present,ACTION,give,17,SingleNaming,0,X,Younger,Single,0
16,present,ACTION,give,17,SingleNaming,0,X,Younger,Single,0
53,soap,ACTION,wash,17,SingleNaming,0,X,Younger,Single,0
65,present,ACTION,give,17,SingleNaming,0,X,Younger,Single,0
97,soap,ACTION,wash,17,SingleNaming,0,X,Younger,Single,0
21,pen,ACTION,write,18,nonswitch,0,X,Younger,Dual,0
31,pen,ACTION,write,18,nonswitch,0,X,Older,Dual,0
91,pen,ACTION,write,18,nonswitch,0,X,Older,Dual,0
55,toy,OBJECT,toy,18,SingleNaming,0,X,Younger,Single,0
96,toy,OBJECT,toy,18,SingleNaming,0,X,Older,Single,0
31,cup,OBJECT,cup,19,switch,0,X,Older,Dual,0
2,brain,ACTION,think,19,SingleNaming,0,X,Younger,Single,0
5,suitcase,ACTION,pack,19,SingleNaming,0,X,Younger,Single,0
11,ladder,OBJECT,ladder,19,SingleNaming,0,X,Younger,Single,0
34,suitcase,ACTION,pack,19,SingleNaming,0,X,Older,Single,0
47,suitcase,ACTION,pack,19,SingleNaming,0,X,Younger,Single,0
49,suitcase,ACTION,pack,19,SingleNaming,0,X,Older,Single,0
83,suitcase,ACTION,pack,19,SingleNaming,0,X,Older,Single,0
91,ladder,OBJECT,ladder,19,SingleNaming,0,X,Older,Single,0
5,cup,OBJECT,cup,20,nonswitch,0,X,Younger,Dual,0
58,knife,OBJECT,knife,20,nonswitch,0,X,Younger,Dual,0
83,plane,ACTION,fly,20,SingleNaming,0,X,Older,Single,0
3,cake,ACTION,bake,21,switch,0,X,Younger,Dual,0
16,cake,ACTION,bake,21,switch,0,X,Younger,Dual,0
34,cake,ACTION,bake,21,switch,0,X,Older,Dual,0
49,cake,ACTION,bake,21,switch,0,X,Older,Dual,0
74,cake,ACTION,bake,21,switch,0,X,Older,Dual,0
78,cake,ACTION,bake,21,switch,0,X,Older,Dual,0
92,cake,ACTION,bake,21,switch,0,X,Older,Dual,0
97,cake,OBJECT,cake,21,nonswitch,0,X,Younger,Dual,0
2,brain,ACTION,think,22,switch,0,X,Younger,Dual,0
5,newspaper,ACTION,read,22,nonswitch,0,X,Younger,Dual,0
47,newspaper,ACTION,read,22,nonswitch,0,X,Younger,Dual,0
16,present,OBJECT,present,22,SingleNaming,0,X,Younger,Single,0
84,strawberry,ACTION,eat,22,SingleNaming,0,X,Older,Single,0
3,trophy,OBJECT,trophy,23,switch,0,X,Younger,Dual,0
5,trophy,OBJECT,trophy,23,switch,0,X,Younger,Dual,0
51,suitcase,OBJECT,suitcase,23,switch,0,X,Older,Dual,0
54,trophy,OBJECT,trophy,23,switch,0,X,Older,Dual,0
5,present,OBJECT,present,24,nonswitch,0,X,Younger,Dual,0
13,present,OBJECT,present,24,nonswitch,0,X,Younger,Dual,0
2,brain,ACTION,think,24,SingleNaming,0,X,Younger,Single,0
16,teeth,OBJECT,teeth,24,SingleNaming,0,X,Younger,Single,0
95,brain,ACTION,think,24,SingleNaming,0,X,Older,Single,0
5,ladder,OBJECT,ladder,25,nonswitch,0,X,Younger,Dual,0
9,cup,OBJECT,cup,25,nonswitch,0,X,Younger,Dual,0
96,cup,OBJECT,cup,25,nonswitch,0,X,Older,Dual,0
5,newspaper,OBJECT,newspaper,25,SingleNaming,0,X,Younger,Single,0
57,cake,ACTION,bake,25,SingleNaming,0,X,Younger,Single,0
78,newspaper,OBJECT,newspaper,25,SingleNaming,0,X,Older,Single,0
5,present,ACTION,give,26,SingleNaming,0,X,Younger,Single,0
16,candle,OBJECT,candle,26,SingleNaming,0,X,Younger,Single,0
34,present,ACTION,give,26,SingleNaming,0,X,Older,Single,0
35,present,ACTION,give,26,SingleNaming,0,X,Older,Single,0
54,present,ACTION,give,26,SingleNaming,0,X,Older,Single,0
13,knife,ACTION,cut,27,switch,0,X,Younger,Dual,0
9,suitcase,ACTION,pack,27,SingleNaming,0,X,Younger,Single,0
91,suitcase,ACTION,pack,27,SingleNaming,0,X,Older,Single,0
3,candle,ACTION,light,28,nonswitch,0,X,Younger,Dual,0
5,candle,ACTION,light,28,nonswitch,0,X,Younger,Dual,0
28,soap,ACTION,wash,28,nonswitch,0,X,Older,Dual,0
47,candle,ACTION,light,28,nonswitch,0,X,Younger,Dual,0
48,soap,ACTION,wash,28,nonswitch,0,X,Older,Dual,0
53,soap,ACTION,wash,28,nonswitch,0,X,Younger,Dual,0
5,suitcase,ACTION,pack,28,SingleNaming,0,X,Younger,Single,0
15,teeth,ACTION,brush,28,SingleNaming,0,X,Younger,Single,0
16,plane,OBJECT,plane,28,SingleNaming,0,X,Younger,Single,0
46,teeth,ACTION,brush,28,SingleNaming,0,X,Older,Single,0
58,teeth,ACTION,brush,28,SingleNaming,0,X,Younger,Single,0
99,teeth,ACTION,brush,28,SingleNaming,0,X,Older,Single,0
4,teeth,OBJECT,teeth,29,switch,0,X,Younger,Dual,0
5,teeth,OBJECT,teeth,29,switch,0,X,Younger,Dual,0
5,suitcase,OBJECT,suitcase,29,SingleNaming,0,X,Younger,Single,0
16,suitcase,OBJECT,suitcase,29,SingleNaming,0,X,Younger,Single,0
20,pen,ACTION,write,29,SingleNaming,0,X,Younger,Single,0
5,trophy,OBJECT,trophy,30,nonswitch,0,X,Younger,Dual,0
47,trophy,OBJECT,trophy,30,nonswitch,0,X,Younger,Dual,0
53,soap,OBJECT,soap,30,nonswitch,0,X,Younger,Dual,0
5,trophy,OBJECT,trophy,30,SingleNaming,0,X,Younger,Single,0
9,toy,ACTION,play,30,SingleNaming,0,X,Younger,Single,0
16,trophy,OBJECT,trophy,30,SingleNaming,0,X,Younger,Single,0
47,trophy,OBJECT,trophy,30,SingleNaming,0,X,Younger,Single,0
54,trophy,OBJECT,trophy,30,SingleNaming,0,X,Older,Single,0
95,toy,ACTION,play,30,SingleNaming,0,X,Older,Single,0
5,broom,ACTION,sweep,31,switch,0,X,Younger,Dual,0
63,strawberry,ACTION,eat,31,switch,0,X,Younger,Dual,0
68,broom,ACTION,sweep,31,switch,0,X,Younger,Dual,0
9,horse,ACTION,ride,31,SingleNaming,0,X,Younger,Single,0
15,horse,ACTION,ride,31,SingleNaming,0,X,Younger,Single,0
16,pen,OBJECT,pen,31,SingleNaming,0,X,Younger,Single,0
44,pen,ACTION,write,31,SingleNaming,0,X,Older,Single,0
55,horse,ACTION,ride,31,SingleNaming,0,X,Younger,Single,0
63,horse,ACTION,ride,31,SingleNaming,0,X,Younger,Single,0
83,pen,ACTION,write,31,SingleNaming,0,X,Older,Single,0
86,horse,ACTION,ride,31,SingleNaming,0,X,Older,Single,0
91,horse,ACTION,ride,31,SingleNaming,0,X,Older,Single,0
15,cup,ACTION,drink,32,nonswitch,0,X,Younger,Dual,0
3,soap,ACTION,wash,32,SingleNaming,0,X,Younger,Single,0
5,soap,ACTION,wash,32,SingleNaming,0,X,Younger,Single,0
15,newspaper,OBJECT,newspaper,32,SingleNaming,0,X,Younger,Single,0
29,soap,ACTION,wash,32,SingleNaming,0,X,Older,Single,0
34,soap,ACTION,wash,32,SingleNaming,0,X,Older,Single,0
5,cup,ACTION,drink,33,nonswitch,0,X,Younger,Dual,0
89,cup,ACTION,drink,33,nonswitch,0,X,Younger,Dual,0
15,plane,ACTION,fly,33,SingleNaming,0,X,Younger,Single,0
91,plane,ACTION,fly,33,SingleNaming,0,X,Older,Single,0
5,suitcase,OBJECT,suitcase,34,switch,0,X,Younger,Dual,0
12,suitcase,OBJECT,suitcase,34,switch,0,X,Younger,Dual,0
30,suitcase,OBJECT,suitcase,34,switch,0,X,Older,Dual,0
53,suitcase,ACTION,pack,34,switch,0,X,Younger,Dual,0
89,suitcase,OBJECT,suitcase,34,switch,0,X,Younger,Dual,0
18,cake,ACTION,bake,34,SingleNaming,0,X,Younger,Single,0
53,cake,ACTION,bake,34,SingleNaming,0,X,Younger,Single,0
58,cake,ACTION,bake,34,SingleNaming,0,X,Younger,Single,0
82,cake,ACTION,bake,34,SingleNaming,0,X,Younger,Single,0
3,soap,ACTION,wash,35,switch,0,X,Younger,Dual,0
29,soap,ACTION,wash,35,switch,0,X,Older,Dual,0
34,soap,ACTION,wash,35,switch,0,X,Older,Dual,0
53,soap,OBJECT,soap,35,switch,0,X,Younger,Dual,0
84,candle,ACTION,light,35,SingleNaming,0,X,Older,Single,0
96,candle,ACTION,light,35,SingleNaming,0,X,Older,Single,0
5,present,OBJECT,present,36,switch,0,X,Younger,Dual,0
12,present,OBJECT,present,36,switch,0,X,Younger,Dual,0
12,toy,OBJECT,toy,36,SingleNaming,0,X,Younger,Single,0
15,broom,ACTION,sweep,36,SingleNaming,0,X,Younger,Single,0
16,toy,OBJECT,toy,36,SingleNaming,0,X,Younger,Single,0
54,ladder,ACTION,climb,36,SingleNaming,0,X,Older,Single,0
91,broom,ACTION,sweep,36,SingleNaming,0,X,Older,Single,0
5,strawberry,OBJECT,strawberry,37,nonswitch,0,X,Younger,Dual,0
54,strawberry,OBJECT,strawberry,37,nonswitch,0,X,Older,Dual,0
68,strawberry,OBJECT,strawberry,37,nonswitch,0,X,Younger,Dual,0
53,soap,ACTION,wash,37,SingleNaming,0,X,Younger,Single,0
91,soap,ACTION,wash,37,SingleNaming,0,X,Older,Single,0
16,eye,OBJECT,eye,38,SingleNaming,0,X,Younger,Single,0
91,newspaper,ACTION,read,38,SingleNaming,0,X,Older,Single,0
5,broom,ACTION,sweep,39,nonswitch,0,X,Younger,Dual,0
15,horse,ACTION,ride,39,nonswitch,0,X,Younger,Dual,0
48,horse,ACTION,ride,39,nonswitch,0,X,Older,Dual,0
91,horse,ACTION,ride,39,nonswitch,0,X,Older,Dual,0
5,soap,OBJECT,soap,39,SingleNaming,0,X,Younger,Single,0
11,present,ACTION,give,39,SingleNaming,0,X,Younger,Single,0
29,soap,OBJECT,soap,39,SingleNaming,0,X,Older,Single,0
34,trophy,ACTION,win,39,SingleNaming,0,X,Older,Single,0
34,soap,OBJECT,soap,39,SingleNaming,0,X,Older,Single,0
53,soap,OBJECT,soap,39,SingleNaming,0,X,Younger,Single,0
53,present,ACTION,give,39,SingleNaming,0,X,Younger,Single,0
83,trophy,ACTION,win,39,SingleNaming,0,X,Older,Single,0
86,knife,ACTION,cut,40,nonswitch,0,X,Older,Dual,0
12,toy,ACTION,play,40,SingleNaming,0,X,Younger,Single,0
20,broom,OBJECT,broom,40,SingleNaming,0,X,Younger,Single,0
25,trophy,ACTION,win,40,SingleNaming,0,X,Older,Single,0
46,broom,OBJECT,broom,40,SingleNaming,0,X,Older,Single,0
54,toy,ACTION,play,40,SingleNaming,0,X,Older,Single,0
81,trophy,ACTION,win,40,SingleNaming,0,X,Older,Single,0
83,toy,ACTION,play,40,SingleNaming,0,X,Older,Single,0
84,trophy,ACTION,win,40,SingleNaming,0,X,Older,Single,0
3,horse,ACTION,ride,41,X,0,X,Younger,Dual,0
4,horse,ACTION,ride,41,X,0,X,Younger,Dual,0
14,cake,OBJECT,cake,41,X,0,X,Younger,Dual,0
36,horse,ACTION,ride,41,X,0,X,Older,Dual,0
48,cake,OBJECT,cake,41,X,0,X,Older,Dual,0
49,horse,ACTION,ride,41,X,0,X,Older,Dual,0
62,horse,ACTION,ride,41,X,0,X,Older,Dual,0
69,cake,OBJECT,cake,41,X,0,X,Older,Dual,0
95,cake,OBJECT,cake,41,X,0,X,Older,Dual,0
34,suitcase,ACTION,pack,42,nonswitch,0,X,Older,Dual,0
54,suitcase,ACTION,pack,42,nonswitch,0,X,Older,Dual,0
78,suitcase,ACTION,pack,42,nonswitch,0,X,Older,Dual,0
5,cup,OBJECT,cup,43,switch,0,X,Younger,Dual,0
20,horse,ACTION,ride,43,switch,0,X,Younger,Dual,0
89,cup,OBJECT,cup,43,switch,0,X,Younger,Dual,0
3,newspaper,OBJECT,newspaper,44,nonswitch,0,X,Younger,Dual,0
5,newspaper,OBJECT,newspaper,44,nonswitch,0,X,Younger,Dual,0
50,plane,OBJECT,plane,44,switch,0,X,Older,Dual,0
78,newspaper,OBJECT,newspaper,44,nonswitch,0,X,Older,Dual,0
3,coat,OBJECT,coat,45,nonswitch,0,X,Younger,Dual,0
14,eye,OBJECT,eye,45,nonswitch,0,X,Younger,Dual,0
5,cake,OBJECT,cake,46,nonswitch,0,X,Younger,Dual,0
14,pen,OBJECT,pen,46,nonswitch,0,X,Younger,Dual,0
20,pen,OBJECT,pen,46,nonswitch,0,X,Younger,Dual,0
5,candle,ACTION,light,47,switch,0,X,Younger,Dual,0
53,soap,ACTION,wash,47,switch,0,X,Younger,Dual,0
5,coat,ACTION,wear,48,nonswitch,0,X,Younger,Dual,0
13,coat,ACTION,wear,48,nonswitch,0,X,Younger,Dual,0
28,candle,ACTION,light,48,nonswitch,0,X,Older,Dual,0
95,candle,ACTION,light,48,nonswitch,0,X,Older,Dual,0
3,present,ACTION,give,49,nonswitch,0,X,Younger,Dual,0
5,present,ACTION,give,49,nonswitch,0,X,Younger,Dual,0
34,present,ACTION,give,49,nonswitch,0,X,Older,Dual,0
89,present,ACTION,give,49,nonswitch,0,X,Younger,Dual,0
54,eye,OBJECT,eye,50,switch,0,X,Older,Dual,0
98,eye,OBJECT,eye,50,switch,0,X,Older,Dual,0
15,trophy,ACTION,win,51,nonswitch,0,X,Younger,Dual,0
20,trophy,ACTION,win,51,nonswitch,0,X,Younger,Dual,0
25,trophy,ACTION,win,51,nonswitch,0,X,Older,Dual,0
37,trophy,ACTION,win,51,nonswitch,0,X,Older,Dual,0
50,trophy,ACTION,win,51,nonswitch,0,X,Older,Dual,0
98,plane,OBJECT,plane,51,nonswitch,0,X,Older,Dual,0
24,strawberry,OBJECT,strawberry,52,switch,0,X,Younger,Dual,0
25,strawberry,OBJECT,strawberry,52,switch,0,X,Older,Dual,0
78,newspaper,OBJECT,newspaper,53,switch,0,X,Older,Dual,0
95,plane,OBJECT,plane,53,nonswitch,0,X,Older,Dual,0
5,soap,OBJECT,soap,54,nonswitch,0,X,Younger,Dual,0
29,soap,OBJECT,soap,54,nonswitch,0,X,Older,Dual,0
34,soap,OBJECT,soap,54,nonswitch,0,X,Older,Dual,0
95,newspaper,OBJECT,newspaper,54,nonswitch,0,X,Older,Dual,0
14,candle,ACTION,light,55,switch,0,X,Younger,Dual,0
54,coat,ACTION,wear,55,switch,0,X,Older,Dual,0
67,coat,ACTION,wear,55,switch,0,X,Younger,Dual,0
95,candle,ACTION,light,55,switch,0,X,Older,Dual,0
95,strawberry,ACTION,eat,56,nonswitch,0,X,Older,Dual,0
5,strawberry,ACTION,eat,57,nonswitch,0,X,Younger,Dual,0
52,present,OBJECT,present,57,switch,0,X,Older,Dual,0
95,present,OBJECT,present,57,switch,0,X,Older,Dual,0
5,knife,OBJECT,knife,58,switch,0,X,Younger,Dual,0
54,knife,OBJECT,knife,58,switch,0,X,Older,Dual,0
95,plane,ACTION,fly,58,switch,0,X,Older,Dual,0
2,brain,OBJECT,brain,59,switch,0,X,Younger,Dual,0
5,trophy,ACTION,win,59,switch,0,X,Younger,Dual,0
34,trophy,ACTION,win,59,switch,0,X,Older,Dual,0
46,brain,OBJECT,brain,59,switch,0,X,Older,Dual,0
95,brain,OBJECT,brain,59,switch,0,X,Older,Dual,0
14,ladder,OBJECT,ladder,60,nonswitch,0,X,Younger,Dual,0
84,ladder,OBJECT,ladder,60,nonswitch,0,X,Older,Dual,0
95,ladder,OBJECT,ladder,60,nonswitch,0,X,Older,Dual,0
12,present,OBJECT,present,61,switch,0,X,Younger,Dual,0
19,present,OBJECT,present,61,switch,0,X,Younger,Dual,0
95,coat,ACTION,wear,61,switch,0,X,Older,Dual,0
95,eye,ACTION,see,62,nonswitch,0,X,Older,Dual,0
14,broom,ACTION,sweep,63,nonswitch,0,X,Younger,Dual,0
16,toy,ACTION,play,63,nonswitch,0,X,Younger,Dual,0
45,toy,ACTION,play,63,nonswitch,0,X,Younger,Dual,0
95,broom,ACTION,sweep,63,nonswitch,0,X,Older,Dual,0
2,brain,ACTION,think,64,nonswitch,0,X,Younger,Dual,0
89,ladder,ACTION,climb,64,nonswitch,0,X,Younger,Dual,0
95,brain,ACTION,think,64,nonswitch,0,X,Older,Dual,0
5,candle,OBJECT,candle,65,switch,0,X,Younger,Dual,0
54,candle,OBJECT,candle,65,switch,0,X,Older,Dual,0
95,toy,OBJECT,toy,65,switch,0,X,Older,Dual,0
2,teeth,ACTION,brush,66,switch,0,X,Younger,Dual,0
5,suitcase,ACTION,pack,66,switch,0,X,Younger,Dual,0
31,teeth,ACTION,brush,66,switch,0,X,Older,Dual,0
34,suitcase,ACTION,pack,66,switch,0,X,Older,Dual,0
95,teeth,ACTION,brush,66,switch,0,X,Older,Dual,0
5,soap,ACTION,wash,67,nonswitch,0,X,Younger,Dual,0
29,soap,ACTION,wash,67,nonswitch,0,X,Older,Dual,0
31,present,ACTION,give,67,nonswitch,0,X,Older,Dual,0
34,soap,ACTION,wash,67,nonswitch,0,X,Older,Dual,0
42,soap,ACTION,wash,67,nonswitch,0,X,Older,Dual,0
46,present,ACTION,give,67,nonswitch,0,X,Older,Dual,0
95,present,ACTION,give,67,nonswitch,0,X,Older,Dual,0
2,brain,ACTION,think,68,nonswitch,0,X,Younger,Dual,0
95,brain,ACTION,think,68,nonswitch,0,X,Older,Dual,0
18,broom,OBJECT,broom,69,switch,0,X,Younger,Dual,0
95,broom,OBJECT,broom,69,switch,0,X,Older,Dual,0
49,brain,OBJECT,brain,70,nonswitch,0,X,Older,Dual,0
95,present,OBJECT,present,70,nonswitch,0,X,Older,Dual,0
19,present,ACTION,give,71,switch,0,X,Younger,Dual,0
45,present,ACTION,give,71,switch,0,X,Younger,Dual,0
74,present,ACTION,give,71,switch,0,X,Older,Dual,0
95,trophy,ACTION,win,71,switch,0,X,Older,Dual,0
34,trophy,ACTION,win,72,nonswitch,0,X,Older,Dual,0
47,trophy,ACTION,win,72,nonswitch,0,X,Younger,Dual,0
68,trophy,ACTION,win,72,nonswitch,0,X,Younger,Dual,0
95,newspaper,OBJECT,newspaper,72,switch,0,X,Older,Dual,0
58,suitcase,OBJECT,suitcase,73,nonswitch,0,X,Younger,Dual,0
69,suitcase,OBJECT,suitcase,73,nonswitch,0,X,Older,Dual,0
95,suitcase,OBJECT,suitcase,73,nonswitch,0,X,Older,Dual,0
5,broom,OBJECT,broom,74,switch,0,X,Younger,Dual,0
95,knife,ACTION,cut,74,switch,0,X,Older,Dual,0
4,newspaper,ACTION,read,75,switch,0,X,Younger,Dual,0
15,coat,ACTION,wear,75,nonswitch,0,X,Younger,Dual,0
47,newspaper,ACTION,read,75,switch,0,X,Younger,Dual,0
78,newspaper,ACTION,read,75,switch,0,X,Older,Dual,0
95,coat,ACTION,wear,75,nonswitch,0,X,Older,Dual,0
95,eye,OBJECT,eye,76,switch,0,X,Older,Dual,0
16,broom,OBJECT,broom,77,nonswitch,0,X,Younger,Dual,0
18,broom,OBJECT,broom,77,nonswitch,0,X,Younger,Dual,0
53,broom,OBJECT,broom,77,nonswitch,0,X,Younger,Dual,0
54,broom,OBJECT,broom,77,nonswitch,0,X,Older,Dual,0
86,broom,OBJECT,broom,77,nonswitch,0,X,Older,Dual,0
91,broom,OBJECT,broom,77,nonswitch,0,X,Older,Dual,0
95,broom,OBJECT,broom,77,nonswitch,0,X,Older,Dual,0
16,strawberry,ACTION,eat,78,switch,0,X,Younger,Dual,0
23,newspaper,ACTION,read,78,switch,0,X,Younger,Dual,0
51,newspaper,ACTION,read,78,switch,0,X,Older,Dual,0
95,newspaper,ACTION,read,78,switch,0,X,Older,Dual,0
3,cake,ACTION,bake,79,nonswitch,0,X,Younger,Dual,0
4,cake,ACTION,bake,79,nonswitch,0,X,Younger,Dual,0
14,ladder,ACTION,climb,79,nonswitch,0,X,Younger,Dual,0
16,cake,ACTION,bake,79,nonswitch,0,X,Younger,Dual,0
57,cake,ACTION,bake,79,nonswitch,0,X,Younger,Dual,0
95,ladder,ACTION,climb,79,nonswitch,0,X,Older,Dual,0
98,cake,ACTION,bake,79,nonswitch,0,X,Older,Dual,0
1,trophy,OBJECT,trophy,80,switch,0,X,Younger,Dual,0
11,trophy,OBJECT,trophy,80,switch,0,X,Younger,Dual,0
47,ladder,OBJECT,ladder,80,switch,0,X,Younger,Dual,0
84,trophy,OBJECT,trophy,80,switch,0,X,Older,Dual,0
89,ladder,OBJECT,ladder,80,switch,0,X,Younger,Dual,0
95,trophy,OBJECT,trophy,80,switch,0,X,Older,Dual,0
15,eye,ACTION,see,81,X,0,X,Younger,Dual,0
79,knife,OBJECT,knife,81,X,0,X,Older,Dual,0
12,cup,ACTION,drink,82,switch,0,X,Younger,Dual,0
20,newspaper,ACTION,read,82,nonswitch,0,X,Younger,Dual,0
3,present,OBJECT,present,84,nonswitch,0,X,Younger,Dual,0
5,present,OBJECT,present,84,nonswitch,0,X,Younger,Dual,0
54,teeth,OBJECT,teeth,85,nonswitch,0,X,Older,Dual,0
99,cup,OBJECT,cup,85,nonswitch,0,X,Older,Dual,0
1,pen,ACTION,write,86,switch,0,X,Younger,Dual,0
11,pen,ACTION,write,86,switch,0,X,Younger,Dual,0
25,pen,ACTION,write,86,switch,0,X,Older,Dual,0
47,broom,ACTION,sweep,86,switch,0,X,Younger,Dual,0
15,soap,ACTION,wash,87,nonswitch,0,X,Younger,Dual,0
16,cake,ACTION,bake,87,nonswitch,0,X,Younger,Dual,0
18,soap,ACTION,wash,87,nonswitch,0,X,Younger,Dual,0
35,cake,ACTION,bake,87,nonswitch,0,X,Older,Dual,0
53,soap,ACTION,wash,87,nonswitch,0,X,Younger,Dual,0
67,present,ACTION,give,89,switch,0,X,Younger,Dual,0
19,pen,OBJECT,pen,90,switch,0,X,Younger,Dual,0
5,toy,OBJECT,toy,91,nonswitch,0,X,Younger,Dual,0
11,pen,OBJECT,pen,91,switch,0,X,Younger,Dual,0
70,cup,ACTION,drink,92,switch,0,X,Older,Dual,0
91,cup,ACTION,drink,92,switch,0,X,Older,Dual,0
5,suitcase,OBJECT,suitcase,93,nonswitch,0,X,Younger,Dual,0
12,suitcase,OBJECT,suitcase,93,nonswitch,0,X,Younger,Dual,0
47,brain,ACTION,think,94,switch,0,X,Younger,Dual,0
1,teeth,OBJECT,teeth,95,nonswitch,0,X,Younger,Dual,0
47,broom,ACTION,sweep,95,nonswitch,0,X,Younger,Dual,0
91,teeth,OBJECT,teeth,95,nonswitch,0,X,Older,Dual,0
97,teeth,OBJECT,teeth,95,nonswitch,0,X,Younger,Dual,0
3,suitcase,OBJECT,suitcase,96,switch,0,X,Younger,Dual,0
5,suitcase,OBJECT,suitcase,96,switch,0,X,Younger,Dual,0
12,suitcase,OBJECT,suitcase,96,switch,0,X,Younger,Dual,0
16,suitcase,OBJECT,suitcase,96,switch,0,X,Younger,Dual,0
9,suitcase,ACTION,pack,97,nonswitch,0,X,Younger,Dual,0
16,cup,OBJECT,cup,97,nonswitch,0,X,Younger,Dual,0
26,cup,OBJECT,cup,97,nonswitch,0,X,Younger,Dual,0
34,eye,OBJECT,eye,99,switch,0,X,Older,Dual,0
54,eye,OBJECT,eye,99,switch,0,X,Older,Dual,0
5,broom,OBJECT,broom,100,nonswitch,0,X,Younger,Dual,0
10,broom,OBJECT,broom,100,nonswitch,0,X,Younger,Dual,0
95,ladder,OBJECT,ladder,100,nonswitch,0,X,Older,Dual,0
5,ladder,ACTION,climb,101,switch,0,X,Younger,Dual,0
83,ladder,ACTION,climb,101,switch,0,X,Older,Dual,0
34,trophy,ACTION,win,102,nonswitch,0,X,Older,Dual,0
63,ladder,ACTION,climb,102,switch,0,X,Younger,Dual,0
95,ladder,ACTION,climb,102,switch,0,X,Older,Dual,0
5,brain,OBJECT,brain,103,switch,0,X,Younger,Dual,0
80,candle,OBJECT,candle,106,nonswitch,0,X,Older,Dual,0
5,newspaper,ACTION,read,107,switch,0,X,Younger,Dual,0
7,newspaper,ACTION,read,107,switch,0,X,Younger,Dual,0
19,newspaper,ACTION,read,107,switch,0,X,Younger,Dual,0
68,newspaper,ACTION,read,107,switch,0,X,Younger,Dual,0
97,coat,ACTION,wear,107,switch,0,X,Younger,Dual,0
15,suitcase,ACTION,pack,108,nonswitch,0,X,Younger,Dual,0
16,strawberry,ACTION,eat,108,nonswitch,0,X,Younger,Dual,0
20,suitcase,ACTION,pack,108,nonswitch,0,X,Younger,Dual,0
67,strawberry,ACTION,eat,108,nonswitch,0,X,Younger,Dual,0
19,teeth,OBJECT,teeth,109,switch,0,X,Younger,Dual,0
23,trophy,OBJECT,trophy,109,switch,0,X,Younger,Dual,0
3,teeth,ACTION,brush,111,switch,0,X,Younger,Dual,0
5,teeth,ACTION,brush,111,switch,0,X,Younger,Dual,0
9,present,ACTION,give,111,switch,0,X,Younger,Dual,0
15,present,ACTION,give,111,switch,0,X,Younger,Dual,0
23,present,ACTION,give,111,switch,0,X,Younger,Dual,0
50,present,ACTION,give,111,switch,0,X,Older,Dual,0
82,present,ACTION,give,111,switch,0,X,Younger,Dual,0
15,trophy,ACTION,win,112,nonswitch,0,X,Younger,Dual,0
23,trophy,ACTION,win,112,nonswitch,0,X,Younger,Dual,0
31,trophy,ACTION,win,112,nonswitch,0,X,Older,Dual,0
35,pen,ACTION,write,112,nonswitch,0,X,Older,Dual,0
67,pen,ACTION,write,112,nonswitch,0,X,Younger,Dual,0
16,soap,ACTION,wash,113,nonswitch,0,X,Younger,Dual,0
23,knife,OBJECT,knife,113,switch,0,X,Younger,Dual,0
29,soap,ACTION,wash,113,nonswitch,0,X,Older,Dual,0
34,soap,ACTION,wash,113,nonswitch,0,X,Older,Dual,0
91,knife,OBJECT,knife,113,switch,0,X,Older,Dual,0
54,horse,OBJECT,horse,114,switch,0,X,Older,Dual,0
10,candle,OBJECT,candle,116,switch,0,X,Younger,Dual,0
61,candle,OBJECT,candle,116,switch,0,X,Younger,Dual,0
67,horse,OBJECT,horse,117,nonswitch,0,X,Younger,Dual,0
3,knife,ACTION,cut,118,switch,0,X,Younger,Dual,0
5,knife,ACTION,cut,118,switch,0,X,Younger,Dual,0
11,suitcase,ACTION,pack,118,switch,0,X,Younger,Dual,0
14,suitcase,ACTION,pack,118,switch,0,X,Younger,Dual,0
5,suitcase,ACTION,pack,119,nonswitch,0,X,Younger,Dual,0
14,broom,ACTION,sweep,119,nonswitch,0,X,Younger,Dual,0
16,suitcase,ACTION,pack,119,nonswitch,0,X,Younger,Dual,0
34,suitcase,ACTION,pack,119,nonswitch,0,X,Older,Dual,0
54,suitcase,ACTION,pack,119,nonswitch,0,X,Older,Dual,0
9,cake,ACTION,bake,120,nonswitch,0,X,Younger,Dual,0
34,cup,OBJECT,cup,120,switch,0,X,Older,Dual,0
72,cake,ACTION,bake,120,nonswitch,0,X,Older,Dual,0
16,cake,ACTION,bake,121,X,0,X,Younger,Dual,0
74,cake,ACTION,bake,121,X,0,X,Older,Dual,0
78,cake,ACTION,bake,121,X,0,X,Older,Dual,0
5,brain,ACTION,think,122,nonswitch,0,X,Younger,Dual,0
15,broom,OBJECT,broom,122,nonswitch,0,X,Younger,Dual,0
18,broom,OBJECT,broom,122,nonswitch,0,X,Younger,Dual,0
68,brain,ACTION,think,122,nonswitch,0,X,Younger,Dual,0
5,knife,OBJECT,knife,123,switch,0,X,Younger,Dual,0
15,strawberry,ACTION,eat,123,switch,0,X,Younger,Dual,0
54,knife,OBJECT,knife,123,switch,0,X,Older,Dual,0
89,knife,OBJECT,knife,123,switch,0,X,Younger,Dual,0
16,brain,OBJECT,brain,125,nonswitch,0,X,Younger,Dual,0
54,brain,OBJECT,brain,125,nonswitch,0,X,Older,Dual,0
57,brain,OBJECT,brain,125,nonswitch,0,X,Younger,Dual,0
16,soap,OBJECT,soap,126,nonswitch,0,X,Younger,Dual,0
29,soap,OBJECT,soap,126,nonswitch,0,X,Older,Dual,0
34,soap,OBJECT,soap,126,nonswitch,0,X,Older,Dual,0
10,trophy,ACTION,win,127,switch,0,X,Younger,Dual,0
20,soap,ACTION,wash,127,switch,0,X,Younger,Dual,0
34,trophy,ACTION,win,127,switch,0,X,Older,Dual,0
53,soap,ACTION,wash,127,switch,0,X,Younger,Dual,0
20,strawberry,ACTION,eat,128,nonswitch,0,X,Younger,Dual,0
96,toy,OBJECT,toy,129,switch,0,X,Older,Dual,0
67,cake,OBJECT,cake,130,switch,0,X,Younger,Dual,0
57,candle,OBJECT,candle,131,nonswitch,0,X,Younger,Dual,0
81,toy,ACTION,play,131,nonswitch,0,X,Older,Dual,0
20,soap,OBJECT,soap,132,switch,0,X,Younger,Dual,0
53,soap,OBJECT,soap,132,switch,0,X,Younger,Dual,0
3,broom,OBJECT,broom,133,switch,0,X,Younger,Dual,0
5,broom,OBJECT,broom,133,switch,0,X,Younger,Dual,0
54,broom,OBJECT,broom,133,switch,0,X,Older,Dual,0
54,trophy,OBJECT,trophy,134,nonswitch,0,X,Older,Dual,0
5,candle,ACTION,light,135,switch,0,X,Younger,Dual,0
12,candle,ACTION,light,135,switch,0,X,Younger,Dual,0
16,candle,ACTION,light,135,switch,0,X,Younger,Dual,0
74,candle,ACTION,light,135,switch,0,X,Older,Dual,0
11,present,ACTION,give,136,nonswitch,0,X,Younger,Dual,0
20,present,ACTION,give,136,nonswitch,0,X,Younger,Dual,0
100,present,ACTION,give,136,nonswitch,0,X,Older,Dual,0
3,ladder,ACTION,climb,137,nonswitch,0,X,Younger,Dual,0
5,ladder,ACTION,climb,137,nonswitch,0,X,Younger,Dual,0
54,ladder,ACTION,climb,137,nonswitch,0,X,Older,Dual,0
89,ladder,ACTION,climb,137,nonswitch,0,X,Younger,Dual,0
9,horse,ACTION,ride,138,switch,0,X,Younger,Dual,0
3,suitcase,ACTION,pack,139,switch,0,X,Younger,Dual,0
5,suitcase,ACTION,pack,139,switch,0,X,Younger,Dual,0
36,suitcase,ACTION,pack,139,switch,0,X,Older,Dual,0
78,suitcase,ACTION,pack,139,switch,0,X,Older,Dual,0
5,ladder,OBJECT,ladder,141,switch,0,X,Younger,Dual,0
29,soap,ACTION,wash,142,switch,0,X,Older,Dual,0
34,soap,ACTION,wash,142,switch,0,X,Older,Dual,0
5,newspaper,ACTION,read,143,nonswitch,0,X,Younger,Dual,0
12,newspaper,ACTION,read,143,nonswitch,0,X,Younger,Dual,0
20,pen,ACTION,write,143,nonswitch,0,X,Younger,Dual,0
95,pen,ACTION,write,143,nonswitch,0,X,Older,Dual,0
9,cup,ACTION,drink,144,nonswitch,0,X,Younger,Dual,0
54,coat,ACTION,wear,144,nonswitch,0,X,Older,Dual,0
83,coat,ACTION,wear,144,nonswitch,0,X,Older,Dual,0
15,strawberry,OBJECT,strawberry,145,switch,0,X,Younger,Dual,0
54,trophy,OBJECT,trophy,145,switch,0,X,Older,Dual,0
82,strawberry,OBJECT,strawberry,145,switch,0,X,Younger,Dual,0
83,trophy,OBJECT,trophy,145,switch,0,X,Older,Dual,0
1,brain,ACTION,think,146,switch,0,X,Younger,Dual,0
2,brain,ACTION,think,146,switch,0,X,Younger,Dual,0
9,brain,ACTION,think,146,switch,0,X,Younger,Dual,0
28,brain,ACTION,think,146,switch,0,X,Older,Dual,0
47,plane,ACTION,fly,146,switch,0,X,Younger,Dual,0
83,plane,ACTION,fly,146,switch,0,X,Older,Dual,0
3,candle,ACTION,light,148,nonswitch,0,X,Younger,Dual,0
16,candle,ACTION,light,148,nonswitch,0,X,Younger,Dual,0
19,candle,ACTION,light,148,nonswitch,0,X,Younger,Dual,0
23,candle,ACTION,light,148,nonswitch,0,X,Younger,Dual,0
67,candle,ACTION,light,148,nonswitch,0,X,Younger,Dual,0
5,newspaper,OBJECT,newspaper,149,switch,0,X,Younger,Dual,0
9,horse,OBJECT,horse,149,switch,0,X,Younger,Dual,0
3,plane,OBJECT,plane,150,nonswitch,0,X,Younger,Dual,0
9,soap,OBJECT,soap,150,nonswitch,0,X,Younger,Dual,0
15,soap,OBJECT,soap,150,nonswitch,0,X,Younger,Dual,0
53,soap,OBJECT,soap,150,nonswitch,0,X,Younger,Dual,0
4,present,ACTION,give,152,nonswitch,0,X,Younger,Dual,0
9,cake,OBJECT,cake,152,switch,0,X,Younger,Dual,0
67,present,ACTION,give,152,nonswitch,0,X,Younger,Dual,0
16,teeth,ACTION,brush,153,nonswitch,0,X,Younger,Dual,0
68,teeth,ACTION,brush,153,nonswitch,0,X,Younger,Dual,0
20,toy,ACTION,play,154,switch,0,X,Younger,Dual,0
29,soap,OBJECT,soap,154,switch,0,X,Older,Dual,0
34,soap,OBJECT,soap,154,switch,0,X,Older,Dual,0
46,toy,ACTION,play,154,switch,0,X,Older,Dual,0
47,soap,OBJECT,soap,154,switch,0,X,Younger,Dual,0
45,horse,ACTION,ride,155,switch,0,X,Younger,Dual,0
16,plane,OBJECT,plane,156,switch,0,X,Younger,Dual,0
46,plane,OBJECT,plane,156,switch,0,X,Older,Dual,0
4,pen,OBJECT,pen,157,nonswitch,0,X,Younger,Dual,0
20,present,OBJECT,present,157,nonswitch,0,X,Younger,Dual,0
54,pen,OBJECT,pen,157,nonswitch,0,X,Older,Dual,0
58,present,OBJECT,present,157,nonswitch,0,X,Younger,Dual,0
1,broom,ACTION,sweep,158,switch,0,X,Younger,Dual,0
28,broom,ACTION,sweep,158,switch,0,X,Older,Dual,0
47,coat,ACTION,wear,158,switch,0,X,Younger,Dual,0
46,teeth,ACTION,brush,159,nonswitch,0,X,Older,Dual,0
76,eye,ACTION,see,159,nonswitch,0,X,Older,Dual,0
20,eye,OBJECT,eye,160,switch,0,X,Younger,Dual,0
22,coat,OBJECT,coat,160,switch,0,X,Younger,Dual,0
23,eye,OBJECT,eye,160,switch,0,X,Younger,Dual,0
54,coat,OBJECT,coat,160,switch,0,X,Older,Dual,0
83,coat,OBJECT,coat,160,switch,0,X,Older,Dual,0
1,broom,OBJECT,broom,1,SingleNaming,1,953.7,Younger,Single,1
1,teeth,ACTION,brush,1,SingleNaming,1,1352.7,Younger,Single,1
2,broom,OBJECT,broom,1,SingleNaming,1,1374.5,Younger,Single,1
2,teeth,ACTION,brush,1,SingleNaming,1,1072.5,Younger,Single,1
3,broom,OBJECT,broom,1,SingleNaming,1,1030,Younger,Single,1
3,brain,ACTION,think,1,SingleNaming,1,2445.6,Younger,Single,1
4,brain,ACTION,think,1,SingleNaming,1,1234.5,Younger,Single,1
4,broom,OBJECT,broom,1,SingleNaming,1,1684.4,Younger,Single,1
5,broom,OBJECT,broom,1,SingleNaming,1,1428.9,Younger,Single,1
5,brain,ACTION,think,1,SingleNaming,1,2368.2,Younger,Single,1
6,broom,OBJECT,broom,1,SingleNaming,1,858.9,Younger,Single,1
6,teeth,ACTION,brush,1,SingleNaming,1,1820.6,Younger,Single,1
7,broom,OBJECT,broom,1,SingleNaming,1,1203.5,Younger,Single,1
7,brain,ACTION,think,1,SingleNaming,1,1613.9,Younger,Single,1
8,broom,OBJECT,broom,1,SingleNaming,1,981.2,Younger,Single,1
8,brain,ACTION,think,1,SingleNaming,1,1543.1,Younger,Single,1
9,broom,OBJECT,broom,1,SingleNaming,1,1182.3,Younger,Single,1
9,teeth,ACTION,brush,1,SingleNaming,1,1349.1,Younger,Single,1
10,broom,OBJECT,broom,1,SingleNaming,1,990.1,Younger,Single,1
10,brain,ACTION,think,1,SingleNaming,1,1407.1,Younger,Single,1
11,teeth,ACTION,brush,1,SingleNaming,1,1108.2,Younger,Single,1
11,broom,OBJECT,broom,1,SingleNaming,1,1762.6,Younger,Single,1
12,brain,ACTION,think,1,SingleNaming,1,1479.7,Younger,Single,1
12,broom,OBJECT,broom,1,SingleNaming,1,1708.2,Younger,Single,1
13,broom,OBJECT,broom,1,SingleNaming,1,1007.2,Younger,Single,1
13,brain,ACTION,think,1,SingleNaming,1,1038.3,Younger,Single,1
14,broom,OBJECT,broom,1,SingleNaming,1,1283.9,Younger,Single,1
14,teeth,ACTION,brush,1,SingleNaming,1,1469.7,Younger,Single,1
15,broom,OBJECT,broom,1,SingleNaming,1,1479.2,Younger,Single,1
15,teeth,ACTION,brush,1,SingleNaming,1,1386.6,Younger,Single,1
16,brain,ACTION,think,1,SingleNaming,1,1117.2,Younger,Single,1
16,broom,OBJECT,broom,1,SingleNaming,1,1374.9,Younger,Single,1
17,brain,ACTION,think,1,SingleNaming,1,1050.4,Younger,Single,1
17,broom,OBJECT,broom,1,SingleNaming,1,1925.1,Younger,Single,1
18,teeth,ACTION,brush,1,SingleNaming,1,1238.1,Younger,Single,1
18,broom,OBJECT,broom,1,SingleNaming,1,1475.9,Younger,Single,1
19,broom,OBJECT,broom,1,SingleNaming,1,916.9,Younger,Single,1
19,brain,ACTION,think,1,SingleNaming,1,2847.6,Younger,Single,1
20,broom,OBJECT,broom,1,SingleNaming,1,1180.8,Younger,Single,1
20,teeth,ACTION,brush,1,SingleNaming,1,2807,Younger,Single,1
21,broom,OBJECT,broom,1,SingleNaming,1,1694.9,Younger,Single,1
21,teeth,ACTION,brush,1,SingleNaming,1,1940.3,Younger,Single,1
22,broom,OBJECT,broom,1,SingleNaming,1,1205.7,Younger,Single,1
22,brain,ACTION,think,1,SingleNaming,1,1230.9,Younger,Single,1
23,broom,OBJECT,broom,1,SingleNaming,1,1605.2,Younger,Single,1
23,teeth,ACTION,brush,1,SingleNaming,1,1890.9,Younger,Single,1
24,broom,OBJECT,broom,1,SingleNaming,1,902.3,Younger,Single,1
24,teeth,ACTION,brush,1,SingleNaming,1,1055.4,Younger,Single,1
25,broom,OBJECT,broom,1,SingleNaming,1,1026.1,Older,Single,1
25,teeth,ACTION,brush,1,SingleNaming,1,1532.7,Older,Single,1
26,brain,ACTION,think,1,SingleNaming,1,990.1,Younger,Single,1
26,broom,OBJECT,broom,1,SingleNaming,1,1098.9,Younger,Single,1
27,brain,ACTION,think,1,SingleNaming,1,997.3,Older,Single,1
27,broom,OBJECT,broom,1,SingleNaming,1,1178.7,Older,Single,1
28,broom,OBJECT,broom,1,SingleNaming,1,1731.6,Older,Single,1
28,teeth,ACTION,brush,1,SingleNaming,1,1846,Older,Single,1
29,broom,OBJECT,broom,1,SingleNaming,1,1059.5,Older,Single,1
29,brain,ACTION,think,1,SingleNaming,1,1838.4,Older,Single,1
30,brain,ACTION,think,1,SingleNaming,1,1839,Older,Single,1
31,broom,OBJECT,broom,1,SingleNaming,1,961.2,Older,Single,1
31,teeth,ACTION,brush,1,SingleNaming,1,1024.4,Older,Single,1
32,brain,ACTION,think,1,SingleNaming,1,806.5,Younger,Single,1
32,broom,OBJECT,broom,1,SingleNaming,1,1059.7,Younger,Single,1
33,broom,OBJECT,broom,1,SingleNaming,1,1123.7,Older,Single,1
33,brain,ACTION,think,1,SingleNaming,1,1195.4,Older,Single,1
34,broom,OBJECT,broom,1,SingleNaming,1,1351,Older,Single,1
34,brain,ACTION,think,1,SingleNaming,1,1947.5,Older,Single,1
35,brain,ACTION,think,1,SingleNaming,1,1200.4,Older,Single,1
35,broom,OBJECT,broom,1,SingleNaming,1,1214.9,Older,Single,1
36,brain,ACTION,think,1,SingleNaming,1,1735,Older,Single,1
36,broom,OBJECT,broom,1,SingleNaming,1,1893.1,Older,Single,1
37,broom,OBJECT,broom,1,SingleNaming,1,1118.3,Older,Single,1
37,teeth,ACTION,brush,1,SingleNaming,1,1045.8,Older,Single,1
38,broom,OBJECT,broom,1,SingleNaming,1,978.5,Older,Single,1
38,teeth,ACTION,brush,1,SingleNaming,1,2403.3,Older,Single,1
39,broom,OBJECT,broom,1,SingleNaming,1,955.1,Younger,Single,1
39,teeth,ACTION,brush,1,SingleNaming,1,956.5,Younger,Single,1
40,brain,ACTION,think,1,SingleNaming,1,1316.5,Older,Single,1
40,broom,OBJECT,broom,1,SingleNaming,1,1394.6,Older,Single,1
41,teeth,ACTION,brush,1,SingleNaming,1,1574,Older,Single,1
41,broom,OBJECT,broom,1,SingleNaming,1,1185.9,Older,Single,1
42,broom,OBJECT,broom,1,SingleNaming,1,1405.9,Older,Single,1
42,brain,ACTION,think,1,SingleNaming,1,1529.6,Older,Single,1
43,broom,OBJECT,broom,1,SingleNaming,1,1145.7,Younger,Single,1
43,brain,ACTION,think,1,SingleNaming,1,1587.6,Younger,Single,1
44,broom,OBJECT,broom,1,SingleNaming,1,1038.7,Older,Single,1
44,brain,ACTION,think,1,SingleNaming,1,1205.9,Older,Single,1
45,broom,OBJECT,broom,1,SingleNaming,1,863.1,Younger,Single,1
45,brain,ACTION,think,1,SingleNaming,1,1037.2,Younger,Single,1
46,teeth,ACTION,brush,1,SingleNaming,1,1849.6,Older,Single,1
46,broom,OBJECT,broom,1,SingleNaming,1,1632.5,Older,Single,1
47,brain,ACTION,think,1,SingleNaming,1,953.7,Younger,Single,1
47,broom,OBJECT,broom,1,SingleNaming,1,1352.7,Younger,Single,1
48,broom,OBJECT,broom,1,SingleNaming,1,1151,Older,Single,1
48,teeth,ACTION,brush,1,SingleNaming,1,1328.2,Older,Single,1
49,brain,ACTION,think,1,SingleNaming,1,1375.8,Older,Single,1
49,broom,OBJECT,broom,1,SingleNaming,1,1524.9,Older,Single,1
50,broom,OBJECT,broom,1,SingleNaming,1,1862.8,Older,Single,1
50,teeth,ACTION,brush,1,SingleNaming,1,1390.4,Older,Single,1
51,broom,OBJECT,broom,1,SingleNaming,1,1724,Older,Single,1
51,teeth,ACTION,brush,1,SingleNaming,1,1849.9,Older,Single,1
52,teeth,ACTION,brush,1,SingleNaming,1,1291.7,Older,Single,1
52,broom,OBJECT,broom,1,SingleNaming,1,1570.3,Older,Single,1
53,broom,OBJECT,broom,1,SingleNaming,1,1846.5,Younger,Single,1
53,teeth,ACTION,brush,1,SingleNaming,1,979.3,Younger,Single,1
54,broom,OBJECT,broom,1,SingleNaming,1,1273.9,Older,Single,1
55,broom,OBJECT,broom,1,SingleNaming,1,1719.7,Younger,Single,1
55,teeth,ACTION,brush,1,SingleNaming,1,1202,Younger,Single,1
56,teeth,ACTION,brush,1,SingleNaming,1,975.6,Younger,Single,1
56,broom,OBJECT,broom,1,SingleNaming,1,1250.9,Younger,Single,1
57,brain,ACTION,think,1,SingleNaming,1,775,Younger,Single,1
57,broom,OBJECT,broom,1,SingleNaming,1,1111,Younger,Single,1
58,broom,OBJECT,broom,1,SingleNaming,1,784.6,Younger,Single,1
58,teeth,ACTION,brush,1,SingleNaming,1,1146.2,Younger,Single,1
59,broom,OBJECT,broom,1,SingleNaming,1,1421.7,Older,Single,1
59,teeth,ACTION,brush,1,SingleNaming,1,2098.3,Older,Single,1
60,broom,OBJECT,broom,1,SingleNaming,1,1026.3,Older,Single,1
60,teeth,ACTION,brush,1,SingleNaming,1,981.9,Older,Single,1
61,broom,OBJECT,broom,1,SingleNaming,1,992.3,Younger,Single,1
61,brain,ACTION,think,1,SingleNaming,1,1182.7,Younger,Single,1
62,brain,ACTION,think,1,SingleNaming,1,1196.8,Older,Single,1
62,broom,OBJECT,broom,1,SingleNaming,1,1314,Older,Single,1
63,broom,OBJECT,broom,1,SingleNaming,1,919,Younger,Single,1
63,teeth,ACTION,brush,1,SingleNaming,1,1584.9,Younger,Single,1
64,broom,OBJECT,broom,1,SingleNaming,1,965.2,Younger,Single,1
64,teeth,ACTION,brush,1,SingleNaming,1,1042.2,Younger,Single,1
65,broom,OBJECT,broom,1,SingleNaming,1,881.3,Younger,Single,1
65,brain,ACTION,think,1,SingleNaming,1,956.3,Younger,Single,1
66,broom,OBJECT,broom,1,SingleNaming,1,1098.9,Older,Single,1
66,brain,ACTION,think,1,SingleNaming,1,1296.9,Older,Single,1
67,brain,ACTION,think,1,SingleNaming,1,1120.6,Younger,Single,1
67,broom,OBJECT,broom,1,SingleNaming,1,1164.1,Younger,Single,1
68,broom,OBJECT,broom,1,SingleNaming,1,1201.1,Younger,Single,1
68,brain,ACTION,think,1,SingleNaming,1,1540.9,Younger,Single,1
69,broom,OBJECT,broom,1,SingleNaming,1,1284.8,Older,Single,1
69,teeth,ACTION,brush,1,SingleNaming,1,1821.7,Older,Single,1
70,teeth,ACTION,brush,1,SingleNaming,1,1039.6,Older,Single,1
70,broom,OBJECT,broom,1,SingleNaming,1,1535.8,Older,Single,1
71,broom,OBJECT,broom,1,SingleNaming,1,917.5,Younger,Single,1
71,teeth,ACTION,brush,1,SingleNaming,1,845.6,Younger,Single,1
72,teeth,ACTION,brush,1,SingleNaming,1,1081.3,Older,Single,1
72,broom,OBJECT,broom,1,SingleNaming,1,2125.2,Older,Single,1
73,broom,OBJECT,broom,1,SingleNaming,1,1006.4,Younger,Single,1
74,broom,OBJECT,broom,1,SingleNaming,1,1106.1,Older,Single,1
74,brain,ACTION,think,1,SingleNaming,1,2527.8,Older,Single,1
75,brain,ACTION,think,1,SingleNaming,1,1022.5,Younger,Single,1
75,broom,OBJECT,broom,1,SingleNaming,1,1472.4,Younger,Single,1
76,broom,OBJECT,broom,1,SingleNaming,1,1296.2,Older,Single,1
76,brain,ACTION,think,1,SingleNaming,1,1481.9,Older,Single,1
77,broom,OBJECT,broom,1,SingleNaming,1,1751,Younger,Single,1
78,broom,OBJECT,broom,1,SingleNaming,1,1166.1,Older,Single,1
78,brain,ACTION,think,1,SingleNaming,1,2044.3,Older,Single,1
79,broom,OBJECT,broom,1,SingleNaming,1,1130.1,Older,Single,1
79,brain,ACTION,think,1,SingleNaming,1,1284.2,Older,Single,1
80,broom,OBJECT,broom,1,SingleNaming,1,1345.5,Older,Single,1
80,teeth,ACTION,brush,1,SingleNaming,1,1340.9,Older,Single,1
81,broom,OBJECT,broom,1,SingleNaming,1,2672.9,Older,Single,1
81,teeth,ACTION,brush,1,SingleNaming,1,1806.1,Older,Single,1
82,broom,OBJECT,broom,1,SingleNaming,1,1370.9,Younger,Single,1
82,teeth,ACTION,brush,1,SingleNaming,1,1266.5,Younger,Single,1
83,broom,OBJECT,broom,1,SingleNaming,1,1138.1,Older,Single,1
84,broom,OBJECT,broom,1,SingleNaming,1,1050.4,Older,Single,1
84,teeth,ACTION,brush,1,SingleNaming,1,1341.1,Older,Single,1
85,broom,OBJECT,broom,1,SingleNaming,1,1259.6,Older,Single,1
85,brain,ACTION,think,1,SingleNaming,1,1423,Older,Single,1
86,broom,OBJECT,broom,1,SingleNaming,1,2162.6,Older,Single,1
86,teeth,ACTION,brush,1,SingleNaming,1,1184.5,Older,Single,1
87,broom,OBJECT,broom,1,SingleNaming,1,1038.4,Younger,Single,1
88,brain,ACTION,think,1,SingleNaming,1,976.1,Younger,Single,1
88,broom,OBJECT,broom,1,SingleNaming,1,995.5,Younger,Single,1
89,broom,OBJECT,broom,1,SingleNaming,1,909,Younger,Single,1
89,brain,ACTION,think,1,SingleNaming,1,931,Younger,Single,1
90,brain,ACTION,think,1,SingleNaming,1,1202.7,Older,Single,1
90,broom,OBJECT,broom,1,SingleNaming,1,1367.3,Older,Single,1
91,teeth,ACTION,brush,1,SingleNaming,1,1690,Older,Single,1
92,brain,ACTION,think,1,SingleNaming,1,1121.5,Older,Single,1
92,broom,OBJECT,broom,1,SingleNaming,1,1425.3,Older,Single,1
93,teeth,ACTION,brush,1,SingleNaming,1,1246.4,Older,Single,1
93,broom,OBJECT,broom,1,SingleNaming,1,2378.4,Older,Single,1
94,broom,OBJECT,broom,1,SingleNaming,1,1305.6,Older,Single,1
94,teeth,ACTION,brush,1,SingleNaming,1,1729.9,Older,Single,1
95,broom,OBJECT,broom,1,SingleNaming,1,2172.4,Older,Single,1
95,teeth,ACTION,brush,1,SingleNaming,1,1248.4,Older,Single,1
96,broom,OBJECT,broom,1,SingleNaming,1,1312.5,Older,Single,1
96,teeth,ACTION,brush,1,SingleNaming,1,1581.9,Older,Single,1
97,broom,OBJECT,broom,1,SingleNaming,1,1202.3,Younger,Single,1
97,teeth,ACTION,brush,1,SingleNaming,1,1535.7,Younger,Single,1
98,broom,OBJECT,broom,1,SingleNaming,1,1319.1,Older,Single,1
98,brain,ACTION,think,1,SingleNaming,1,1439.8,Older,Single,1
99,broom,OBJECT,broom,1,SingleNaming,1,2384.6,Older,Single,1
99,teeth,ACTION,brush,1,SingleNaming,1,1461.2,Older,Single,1
100,broom,OBJECT,broom,1,SingleNaming,1,1178.1,Older,Single,1
100,teeth,ACTION,brush,1,SingleNaming,1,1631.2,Older,Single,1
1,knife,ACTION,cut,2,nonswitch,1,1140.5,Younger,Dual,1
2,knife,ACTION,cut,2,nonswitch,1,903.9,Younger,Dual,1
3,cup,ACTION,drink,2,switch,1,1316.5,Younger,Dual,1
4,cup,ACTION,drink,2,switch,1,1393.3,Younger,Dual,1
5,cup,ACTION,drink,2,switch,1,1846,Younger,Dual,1
6,knife,ACTION,cut,2,nonswitch,1,1030,Younger,Dual,1
7,cup,ACTION,drink,2,switch,1,1818.1,Younger,Dual,1
8,cup,ACTION,drink,2,switch,1,1833.6,Younger,Dual,1
9,knife,ACTION,cut,2,nonswitch,1,1008.2,Younger,Dual,1
10,cup,ACTION,drink,2,switch,1,1153.3,Younger,Dual,1
11,knife,ACTION,cut,2,nonswitch,1,1586,Younger,Dual,1
12,cup,ACTION,drink,2,switch,1,1426.2,Younger,Dual,1
13,cup,ACTION,drink,2,switch,1,741.4,Younger,Dual,1
14,knife,ACTION,cut,2,nonswitch,1,1242.8,Younger,Dual,1
15,knife,ACTION,cut,2,nonswitch,1,1399.8,Younger,Dual,1
16,cup,ACTION,drink,2,switch,1,1667.7,Younger,Dual,1
17,cup,ACTION,drink,2,switch,1,1052.8,Younger,Dual,1
18,knife,ACTION,cut,2,nonswitch,1,1417.3,Younger,Dual,1
19,cup,ACTION,drink,2,switch,1,1364.3,Younger,Dual,1
20,knife,ACTION,cut,2,nonswitch,1,1447,Younger,Dual,1
21,knife,ACTION,cut,2,nonswitch,1,1472.4,Younger,Dual,1
22,cup,ACTION,drink,2,switch,1,1132,Younger,Dual,1
23,knife,ACTION,cut,2,nonswitch,1,1481.1,Younger,Dual,1
24,knife,ACTION,cut,2,nonswitch,1,1059,Younger,Dual,1
25,knife,ACTION,cut,2,nonswitch,1,763.1,Older,Dual,1
26,cup,ACTION,drink,2,switch,1,1504.5,Younger,Dual,1
27,cup,ACTION,drink,2,switch,1,1002.1,Older,Dual,1
28,knife,ACTION,cut,2,nonswitch,1,1527.8,Older,Dual,1
29,cup,ACTION,drink,2,switch,1,1118.9,Older,Dual,1
30,cup,ACTION,drink,2,switch,1,1330.4,Older,Dual,1
31,knife,ACTION,cut,2,nonswitch,1,1066,Older,Dual,1
32,cup,ACTION,drink,2,switch,1,920,Younger,Dual,1
33,cup,ACTION,drink,2,switch,1,2193.6,Older,Dual,1
34,cup,ACTION,drink,2,switch,1,2498.8,Older,Dual,1
35,cup,ACTION,drink,2,switch,1,1229.4,Older,Dual,1
36,cup,ACTION,drink,2,switch,1,1483.6,Older,Dual,1
37,knife,ACTION,cut,2,nonswitch,1,1284.9,Older,Dual,1
38,knife,ACTION,cut,2,nonswitch,1,1029.1,Older,Dual,1
39,knife,ACTION,cut,2,nonswitch,1,801.6,Younger,Dual,1
40,cup,ACTION,drink,2,switch,1,1221,Older,Dual,1
41,knife,ACTION,cut,2,nonswitch,1,880.2,Older,Dual,1
42,cup,ACTION,drink,2,switch,1,1198.5,Older,Dual,1
43,cup,ACTION,drink,2,switch,1,1194.9,Younger,Dual,1
44,cup,ACTION,drink,2,switch,1,964,Older,Dual,1
45,cup,ACTION,drink,2,switch,1,1001,Younger,Dual,1
46,knife,ACTION,cut,2,nonswitch,1,1588.2,Older,Dual,1
47,cup,ACTION,drink,2,switch,1,1140.5,Younger,Dual,1
48,knife,ACTION,cut,2,nonswitch,1,1083,Older,Dual,1
49,cup,ACTION,drink,2,switch,1,986.8,Older,Dual,1
50,knife,ACTION,cut,2,nonswitch,1,1304.9,Older,Dual,1
51,knife,ACTION,cut,2,nonswitch,1,1011.8,Older,Dual,1
52,knife,ACTION,cut,2,nonswitch,1,1069.9,Older,Dual,1
53,knife,ACTION,cut,2,nonswitch,1,1587.5,Younger,Dual,1
54,cup,ACTION,drink,2,switch,1,1425.6,Older,Dual,1
55,knife,ACTION,cut,2,nonswitch,1,1500,Younger,Dual,1
56,knife,ACTION,cut,2,nonswitch,1,768.9,Younger,Dual,1
57,cup,ACTION,drink,2,switch,1,1359.2,Younger,Dual,1
58,knife,ACTION,cut,2,nonswitch,1,993.3,Younger,Dual,1
59,knife,ACTION,cut,2,nonswitch,1,1178.1,Older,Dual,1
60,knife,ACTION,cut,2,nonswitch,1,961.1,Older,Dual,1
61,cup,ACTION,drink,2,switch,1,1836.6,Younger,Dual,1
62,cup,ACTION,drink,2,switch,1,1262.1,Older,Dual,1
63,knife,ACTION,cut,2,nonswitch,1,992.1,Younger,Dual,1
64,knife,ACTION,cut,2,nonswitch,1,981.6,Younger,Dual,1
65,cup,ACTION,drink,2,switch,1,1236.7,Younger,Dual,1
66,cup,ACTION,drink,2,switch,1,1837.1,Older,Dual,1
68,cup,ACTION,drink,2,switch,1,1208.4,Younger,Dual,1
69,knife,ACTION,cut,2,nonswitch,1,1131.5,Older,Dual,1
70,knife,ACTION,cut,2,nonswitch,1,1236.6,Older,Dual,1
71,knife,ACTION,cut,2,nonswitch,1,1352.2,Younger,Dual,1
73,knife,ACTION,cut,2,nonswitch,1,1034.8,Younger,Dual,1
74,cup,ACTION,drink,2,switch,1,1733.5,Older,Dual,1
76,cup,ACTION,drink,2,switch,1,1194.7,Older,Dual,1
77,knife,ACTION,cut,2,nonswitch,1,740.3,Younger,Dual,1
78,cup,ACTION,drink,2,switch,1,1209.3,Older,Dual,1
79,cup,ACTION,drink,2,switch,1,1200.5,Older,Dual,1
80,knife,ACTION,cut,2,nonswitch,1,1398.4,Older,Dual,1
81,knife,ACTION,cut,2,nonswitch,1,1332.8,Older,Dual,1
82,knife,ACTION,cut,2,nonswitch,1,1483.3,Younger,Dual,1
83,cup,ACTION,drink,2,switch,1,1768.4,Older,Dual,1
84,knife,ACTION,cut,2,nonswitch,1,1470.5,Older,Dual,1
85,cup,ACTION,drink,2,switch,1,1130.7,Older,Dual,1
86,knife,ACTION,cut,2,nonswitch,1,1106.8,Older,Dual,1
87,cup,ACTION,drink,2,switch,1,1110,Younger,Dual,1
88,cup,ACTION,drink,2,switch,1,1026.5,Younger,Dual,1
89,cup,ACTION,drink,2,switch,1,1306.4,Younger,Dual,1
90,cup,ACTION,drink,2,switch,1,1343.7,Older,Dual,1
91,knife,ACTION,cut,2,nonswitch,1,1770.3,Older,Dual,1
92,cup,ACTION,drink,2,switch,1,1008.2,Older,Dual,1
93,knife,ACTION,cut,2,nonswitch,1,935.7,Older,Dual,1
94,knife,ACTION,cut,2,nonswitch,1,968.8,Older,Dual,1
95,knife,ACTION,cut,2,nonswitch,1,1664.3,Older,Dual,1
96,knife,ACTION,cut,2,nonswitch,1,1140.1,Older,Dual,1
97,knife,ACTION,cut,2,nonswitch,1,1436,Younger,Dual,1
98,cup,ACTION,drink,2,switch,1,1113.5,Older,Dual,1
99,knife,ACTION,cut,2,nonswitch,1,1040.1,Older,Dual,1
1,strawberry,ACTION,eat,2,SingleNaming,1,916.4,Younger,Single,1
1,candle,OBJECT,candle,2,SingleNaming,1,2323.1,Younger,Single,1
2,candle,OBJECT,candle,2,SingleNaming,1,799.3,Younger,Single,1
2,strawberry,ACTION,eat,2,SingleNaming,1,1984.4,Younger,Single,1
3,ladder,OBJECT,ladder,2,SingleNaming,1,1135.1,Younger,Single,1
3,horse,ACTION,ride,2,SingleNaming,1,1461.5,Younger,Single,1
4,ladder,OBJECT,ladder,2,SingleNaming,1,992.3,Younger,Single,1
4,horse,ACTION,ride,2,SingleNaming,1,1123,Younger,Single,1
6,strawberry,ACTION,eat,2,SingleNaming,1,1472.8,Younger,Single,1
7,ladder,OBJECT,ladder,2,SingleNaming,1,817.6,Younger,Single,1
7,horse,ACTION,ride,2,SingleNaming,1,977.9,Younger,Single,1
8,ladder,OBJECT,ladder,2,SingleNaming,1,683.5,Younger,Single,1
8,horse,ACTION,ride,2,SingleNaming,1,1004.6,Younger,Single,1
9,candle,OBJECT,candle,2,SingleNaming,1,1047.5,Younger,Single,1
9,strawberry,ACTION,eat,2,SingleNaming,1,1091.6,Younger,Single,1
10,ladder,OBJECT,ladder,2,SingleNaming,1,1430.5,Younger,Single,1
11,strawberry,ACTION,eat,2,SingleNaming,1,1089.9,Younger,Single,1
11,candle,OBJECT,candle,2,SingleNaming,1,1821.1,Younger,Single,1
12,ladder,OBJECT,ladder,2,SingleNaming,1,1422.8,Younger,Single,1
12,horse,ACTION,ride,2,SingleNaming,1,2346.5,Younger,Single,1
13,ladder,OBJECT,ladder,2,SingleNaming,1,1045.8,Younger,Single,1
14,strawberry,ACTION,eat,2,SingleNaming,1,931.3,Younger,Single,1
14,candle,OBJECT,candle,2,SingleNaming,1,1091.8,Younger,Single,1
15,candle,OBJECT,candle,2,SingleNaming,1,1130.1,Younger,Single,1
16,ladder,OBJECT,ladder,2,SingleNaming,1,860.9,Younger,Single,1
16,horse,ACTION,ride,2,SingleNaming,1,2087.9,Younger,Single,1
17,horse,ACTION,ride,2,SingleNaming,1,841.4,Younger,Single,1
18,candle,OBJECT,candle,2,SingleNaming,1,724.3,Younger,Single,1
18,strawberry,ACTION,eat,2,SingleNaming,1,1670,Younger,Single,1
19,horse,ACTION,ride,2,SingleNaming,1,998.2,Younger,Single,1
19,ladder,OBJECT,ladder,2,SingleNaming,1,1349.4,Younger,Single,1
20,candle,OBJECT,candle,2,SingleNaming,1,1590.3,Younger,Single,1
21,strawberry,ACTION,eat,2,SingleNaming,1,917.2,Younger,Single,1
21,candle,OBJECT,candle,2,SingleNaming,1,962.2,Younger,Single,1
22,ladder,OBJECT,ladder,2,SingleNaming,1,1128.5,Younger,Single,1
23,strawberry,ACTION,eat,2,SingleNaming,1,1411.9,Younger,Single,1
24,candle,OBJECT,candle,2,SingleNaming,1,890.6,Younger,Single,1
24,strawberry,ACTION,eat,2,SingleNaming,1,1262.1,Younger,Single,1
25,candle,OBJECT,candle,2,SingleNaming,1,768.9,Older,Single,1
25,strawberry,ACTION,eat,2,SingleNaming,1,1080.2,Older,Single,1
26,horse,ACTION,ride,2,SingleNaming,1,917.8,Younger,Single,1
26,ladder,OBJECT,ladder,2,SingleNaming,1,1269.3,Younger,Single,1
27,ladder,OBJECT,ladder,2,SingleNaming,1,901,Older,Single,1
27,horse,ACTION,ride,2,SingleNaming,1,910.3,Older,Single,1
28,strawberry,ACTION,eat,2,SingleNaming,1,1791,Older,Single,1
28,candle,OBJECT,candle,2,SingleNaming,1,1968.4,Older,Single,1
29,ladder,OBJECT,ladder,2,SingleNaming,1,674.9,Older,Single,1
29,horse,ACTION,ride,2,SingleNaming,1,1085.3,Older,Single,1
30,horse,ACTION,ride,2,SingleNaming,1,1193.6,Older,Single,1
31,candle,OBJECT,candle,2,SingleNaming,1,1284.4,Older,Single,1
31,strawberry,ACTION,eat,2,SingleNaming,1,2432.6,Older,Single,1
32,ladder,OBJECT,ladder,2,SingleNaming,1,806.5,Younger,Single,1
32,horse,ACTION,ride,2,SingleNaming,1,835.2,Younger,Single,1
33,ladder,OBJECT,ladder,2,SingleNaming,1,857.8,Older,Single,1
33,horse,ACTION,ride,2,SingleNaming,1,1274,Older,Single,1
34,ladder,OBJECT,ladder,2,SingleNaming,1,1671.3,Older,Single,1
34,horse,ACTION,ride,2,SingleNaming,1,1879.6,Older,Single,1
35,ladder,OBJECT,ladder,2,SingleNaming,1,932.1,Older,Single,1
35,horse,ACTION,ride,2,SingleNaming,1,1740.8,Older,Single,1
36,ladder,OBJECT,ladder,2,SingleNaming,1,806.2,Older,Single,1
36,horse,ACTION,ride,2,SingleNaming,1,1427.6,Older,Single,1
37,candle,OBJECT,candle,2,SingleNaming,1,778.6,Older,Single,1
37,strawberry,ACTION,eat,2,SingleNaming,1,865,Older,Single,1
38,strawberry,ACTION,eat,2,SingleNaming,1,898.7,Older,Single,1
38,candle,OBJECT,candle,2,SingleNaming,1,1050.6,Older,Single,1
39,strawberry,ACTION,eat,2,SingleNaming,1,907.3,Younger,Single,1
40,horse,ACTION,ride,2,SingleNaming,1,1040.3,Older,Single,1
40,ladder,OBJECT,ladder,2,SingleNaming,1,1200.4,Older,Single,1
41,candle,OBJECT,candle,2,SingleNaming,1,700.2,Older,Single,1
41,strawberry,ACTION,eat,2,SingleNaming,1,935.7,Older,Single,1
42,horse,ACTION,ride,2,SingleNaming,1,998.5,Older,Single,1
42,ladder,OBJECT,ladder,2,SingleNaming,1,1113.8,Older,Single,1
43,ladder,OBJECT,ladder,2,SingleNaming,1,724.7,Younger,Single,1
43,horse,ACTION,ride,2,SingleNaming,1,1025.7,Younger,Single,1
44,ladder,OBJECT,ladder,2,SingleNaming,1,860.9,Older,Single,1
44,horse,ACTION,ride,2,SingleNaming,1,1016.5,Older,Single,1
45,ladder,OBJECT,ladder,2,SingleNaming,1,899.4,Younger,Single,1
45,horse,ACTION,ride,2,SingleNaming,1,1385.5,Younger,Single,1
46,strawberry,ACTION,eat,2,SingleNaming,1,1133.3,Older,Single,1
47,ladder,OBJECT,ladder,2,SingleNaming,1,916.4,Younger,Single,1
47,horse,ACTION,ride,2,SingleNaming,1,2323.1,Younger,Single,1
48,candle,OBJECT,candle,2,SingleNaming,1,1453.8,Older,Single,1
48,strawberry,ACTION,eat,2,SingleNaming,1,1719.4,Older,Single,1
49,ladder,OBJECT,ladder,2,SingleNaming,1,1036,Older,Single,1
49,horse,ACTION,ride,2,SingleNaming,1,1466.5,Older,Single,1
50,candle,OBJECT,candle,2,SingleNaming,1,1587.5,Older,Single,1
50,strawberry,ACTION,eat,2,SingleNaming,1,2203.5,Older,Single,1
51,strawberry,ACTION,eat,2,SingleNaming,1,1098.8,Older,Single,1
51,candle,OBJECT,candle,2,SingleNaming,1,1436,Older,Single,1
52,strawberry,ACTION,eat,2,SingleNaming,1,954.8,Older,Single,1
52,candle,OBJECT,candle,2,SingleNaming,1,1469,Older,Single,1
53,candle,OBJECT,candle,2,SingleNaming,1,963,Younger,Single,1
53,strawberry,ACTION,eat,2,SingleNaming,1,1943.5,Younger,Single,1
55,strawberry,ACTION,eat,2,SingleNaming,1,939.4,Younger,Single,1
55,candle,OBJECT,candle,2,SingleNaming,1,2076.9,Younger,Single,1
56,strawberry,ACTION,eat,2,SingleNaming,1,706.2,Younger,Single,1
56,candle,OBJECT,candle,2,SingleNaming,1,1318.8,Younger,Single,1
57,ladder,OBJECT,ladder,2,SingleNaming,1,767.2,Younger,Single,1
57,horse,ACTION,ride,2,SingleNaming,1,903.1,Younger,Single,1
58,candle,OBJECT,candle,2,SingleNaming,1,807.7,Younger,Single,1
58,strawberry,ACTION,eat,2,SingleNaming,1,1250.3,Younger,Single,1
59,candle,OBJECT,candle,2,SingleNaming,1,996.5,Older,Single,1
59,strawberry,ACTION,eat,2,SingleNaming,1,1055.1,Older,Single,1
60,candle,OBJECT,candle,2,SingleNaming,1,1842.3,Older,Single,1
60,strawberry,ACTION,eat,2,SingleNaming,1,2259.3,Older,Single,1
61,horse,ACTION,ride,2,SingleNaming,1,649.9,Younger,Single,1
61,ladder,OBJECT,ladder,2,SingleNaming,1,805.1,Younger,Single,1
62,ladder,OBJECT,ladder,2,SingleNaming,1,906.7,Older,Single,1
62,horse,ACTION,ride,2,SingleNaming,1,1693.7,Older,Single,1
63,candle,OBJECT,candle,2,SingleNaming,1,844.8,Younger,Single,1
63,strawberry,ACTION,eat,2,SingleNaming,1,1038.4,Younger,Single,1
64,strawberry,ACTION,eat,2,SingleNaming,1,1015.5,Younger,Single,1
64,candle,OBJECT,candle,2,SingleNaming,1,1237.8,Younger,Single,1
65,ladder,OBJECT,ladder,2,SingleNaming,1,877.3,Younger,Single,1
65,horse,ACTION,ride,2,SingleNaming,1,1112.4,Younger,Single,1
66,ladder,OBJECT,ladder,2,SingleNaming,1,841.8,Older,Single,1
66,horse,ACTION,ride,2,SingleNaming,1,1363.6,Older,Single,1
67,ladder,OBJECT,ladder,2,SingleNaming,1,1454.1,Younger,Single,1
68,ladder,OBJECT,ladder,2,SingleNaming,1,1216,Younger,Single,1
69,strawberry,ACTION,eat,2,SingleNaming,1,1229,Older,Single,1
69,candle,OBJECT,candle,2,SingleNaming,1,1872.6,Older,Single,1
70,strawberry,ACTION,eat,2,SingleNaming,1,1114.9,Older,Single,1
70,candle,OBJECT,candle,2,SingleNaming,1,1730.6,Older,Single,1
71,strawberry,ACTION,eat,2,SingleNaming,1,863.1,Younger,Single,1
71,candle,OBJECT,candle,2,SingleNaming,1,1446.5,Younger,Single,1
72,strawberry,ACTION,eat,2,SingleNaming,1,1225.2,Older,Single,1
72,candle,OBJECT,candle,2,SingleNaming,1,1285.7,Older,Single,1
73,candle,OBJECT,candle,2,SingleNaming,1,856.1,Younger,Single,1
73,strawberry,ACTION,eat,2,SingleNaming,1,1048.4,Younger,Single,1
74,ladder,OBJECT,ladder,2,SingleNaming,1,1004.9,Older,Single,1
74,horse,ACTION,ride,2,SingleNaming,1,1552.2,Older,Single,1
75,ladder,OBJECT,ladder,2,SingleNaming,1,825.2,Younger,Single,1
75,horse,ACTION,ride,2,SingleNaming,1,1019.3,Younger,Single,1
76,horse,ACTION,ride,2,SingleNaming,1,1027.8,Older,Single,1
76,ladder,OBJECT,ladder,2,SingleNaming,1,1105.1,Older,Single,1
77,strawberry,ACTION,eat,2,SingleNaming,1,1361.9,Younger,Single,1
77,candle,OBJECT,candle,2,SingleNaming,1,1609.2,Younger,Single,1
78,ladder,OBJECT,ladder,2,SingleNaming,1,1058.1,Older,Single,1
78,horse,ACTION,ride,2,SingleNaming,1,1126.5,Older,Single,1
79,ladder,OBJECT,ladder,2,SingleNaming,1,897.2,Older,Single,1
79,horse,ACTION,ride,2,SingleNaming,1,1559.1,Older,Single,1
80,candle,OBJECT,candle,2,SingleNaming,1,957.4,Older,Single,1
80,strawberry,ACTION,eat,2,SingleNaming,1,1686.3,Older,Single,1
81,candle,OBJECT,candle,2,SingleNaming,1,1642.7,Older,Single,1
81,strawberry,ACTION,eat,2,SingleNaming,1,1941.5,Older,Single,1
82,strawberry,ACTION,eat,2,SingleNaming,1,1327.4,Younger,Single,1
82,candle,OBJECT,candle,2,SingleNaming,1,1904,Younger,Single,1
83,ladder,OBJECT,ladder,2,SingleNaming,1,1204.8,Older,Single,1
84,candle,OBJECT,candle,2,SingleNaming,1,1134.2,Older,Single,1
84,strawberry,ACTION,eat,2,SingleNaming,1,2067.2,Older,Single,1
85,ladder,OBJECT,ladder,2,SingleNaming,1,874.6,Older,Single,1
85,horse,ACTION,ride,2,SingleNaming,1,946.4,Older,Single,1
86,candle,OBJECT,candle,2,SingleNaming,1,1031.2,Older,Single,1
86,strawberry,ACTION,eat,2,SingleNaming,1,1740.8,Older,Single,1
87,ladder,OBJECT,ladder,2,SingleNaming,1,1026.8,Younger,Single,1
87,horse,ACTION,ride,2,SingleNaming,1,2569.6,Younger,Single,1
88,ladder,OBJECT,ladder,2,SingleNaming,1,936,Younger,Single,1
88,horse,ACTION,ride,2,SingleNaming,1,1028.5,Younger,Single,1
89,ladder,OBJECT,ladder,2,SingleNaming,1,846.4,Younger,Single,1
89,horse,ACTION,ride,2,SingleNaming,1,1111.4,Younger,Single,1
90,ladder,OBJECT,ladder,2,SingleNaming,1,902.8,Older,Single,1
90,horse,ACTION,ride,2,SingleNaming,1,1714.8,Older,Single,1
91,strawberry,ACTION,eat,2,SingleNaming,1,1349.4,Older,Single,1
92,ladder,OBJECT,ladder,2,SingleNaming,1,724.5,Older,Single,1
92,horse,ACTION,ride,2,SingleNaming,1,1046.9,Older,Single,1
93,strawberry,ACTION,eat,2,SingleNaming,1,913.9,Older,Single,1
94,candle,OBJECT,candle,2,SingleNaming,1,926.4,Older,Single,1
94,strawberry,ACTION,eat,2,SingleNaming,1,1418,Older,Single,1
95,candle,OBJECT,candle,2,SingleNaming,1,1431.7,Older,Single,1
95,strawberry,ACTION,eat,2,SingleNaming,1,1603,Older,Single,1
96,strawberry,ACTION,eat,2,SingleNaming,1,1611.3,Older,Single,1
96,candle,OBJECT,candle,2,SingleNaming,1,2628,Older,Single,1
97,candle,OBJECT,candle,2,SingleNaming,1,859.8,Younger,Single,1
97,strawberry,ACTION,eat,2,SingleNaming,1,1090,Younger,Single,1
98,ladder,OBJECT,ladder,2,SingleNaming,1,1014.3,Older,Single,1
98,horse,ACTION,ride,2,SingleNaming,1,1187.1,Older,Single,1
99,candle,OBJECT,candle,2,SingleNaming,1,1268.6,Older,Single,1
99,strawberry,ACTION,eat,2,SingleNaming,1,1378.3,Older,Single,1
100,candle,OBJECT,candle,2,SingleNaming,1,998.3,Older,Single,1
100,strawberry,ACTION,eat,2,SingleNaming,1,1370.9,Older,Single,1
2,coat,OBJECT,coat,3,switch,1,1081.1,Younger,Dual,1
3,horse,OBJECT,horse,3,switch,1,1018.2,Younger,Dual,1
4,horse,OBJECT,horse,3,switch,1,1192.3,Younger,Dual,1
5,horse,OBJECT,horse,3,switch,1,1690,Younger,Dual,1
6,coat,OBJECT,coat,3,switch,1,1146,Younger,Dual,1
8,horse,OBJECT,horse,3,switch,1,1199.5,Younger,Dual,1
9,coat,OBJECT,coat,3,switch,1,1625.6,Younger,Dual,1
10,horse,OBJECT,horse,3,switch,1,1577.6,Younger,Dual,1
11,coat,OBJECT,coat,3,switch,1,1551.1,Younger,Dual,1
12,horse,OBJECT,horse,3,switch,1,1070.9,Younger,Dual,1
14,coat,OBJECT,coat,3,switch,1,1533.7,Younger,Dual,1
15,coat,OBJECT,coat,3,switch,1,1492.6,Younger,Dual,1
16,horse,OBJECT,horse,3,switch,1,2562.6,Younger,Dual,1
17,horse,OBJECT,horse,3,switch,1,862.4,Younger,Dual,1
18,coat,OBJECT,coat,3,switch,1,1283.1,Younger,Dual,1
19,horse,OBJECT,horse,3,switch,1,1243.9,Younger,Dual,1
21,coat,OBJECT,coat,3,switch,1,1482.7,Younger,Dual,1
22,horse,OBJECT,horse,3,switch,1,1134.8,Younger,Dual,1
23,coat,OBJECT,coat,3,switch,1,1542.5,Younger,Dual,1
25,coat,OBJECT,coat,3,switch,1,1276.5,Older,Dual,1
26,horse,OBJECT,horse,3,switch,1,2225.1,Younger,Dual,1
27,horse,OBJECT,horse,3,switch,1,1483.3,Older,Dual,1
28,coat,OBJECT,coat,3,switch,1,2537.6,Older,Dual,1
29,horse,OBJECT,horse,3,switch,1,1814.8,Older,Dual,1
30,horse,OBJECT,horse,3,switch,1,1374.8,Older,Dual,1
31,coat,OBJECT,coat,3,switch,1,888,Older,Dual,1
32,horse,OBJECT,horse,3,switch,1,863.8,Younger,Dual,1
33,horse,OBJECT,horse,3,switch,1,1520,Older,Dual,1
34,horse,OBJECT,horse,3,switch,1,2146.4,Older,Dual,1
35,horse,OBJECT,horse,3,switch,1,1091.6,Older,Dual,1
36,horse,OBJECT,horse,3,switch,1,1369.3,Older,Dual,1
37,coat,OBJECT,coat,3,switch,1,1363.4,Older,Dual,1
38,coat,OBJECT,coat,3,switch,1,1451.1,Older,Dual,1
39,coat,OBJECT,coat,3,switch,1,1040.7,Younger,Dual,1
40,horse,OBJECT,horse,3,switch,1,1118.2,Older,Dual,1
41,coat,OBJECT,coat,3,switch,1,1445.9,Older,Dual,1
42,horse,OBJECT,horse,3,switch,1,1602.3,Older,Dual,1
43,horse,OBJECT,horse,3,switch,1,1338.9,Younger,Dual,1
44,horse,OBJECT,horse,3,switch,1,1282.1,Older,Dual,1
45,horse,OBJECT,horse,3,switch,1,1233.1,Younger,Dual,1
46,coat,OBJECT,coat,3,switch,1,990.3,Older,Dual,1
48,coat,OBJECT,coat,3,switch,1,1990,Older,Dual,1
49,horse,OBJECT,horse,3,switch,1,1392.3,Older,Dual,1
50,coat,OBJECT,coat,3,switch,1,2316,Older,Dual,1
51,coat,OBJECT,coat,3,switch,1,1385.7,Older,Dual,1
52,coat,OBJECT,coat,3,switch,1,1413.5,Older,Dual,1
53,coat,OBJECT,coat,3,switch,1,1692.4,Younger,Dual,1
55,coat,OBJECT,coat,3,switch,1,1098.1,Younger,Dual,1
57,horse,OBJECT,horse,3,switch,1,1196.8,Younger,Dual,1
58,coat,OBJECT,coat,3,switch,1,1363.6,Younger,Dual,1
59,coat,OBJECT,coat,3,switch,1,1006.5,Older,Dual,1
60,coat,OBJECT,coat,3,switch,1,928.4,Older,Dual,1
61,horse,OBJECT,horse,3,switch,1,1816,Younger,Dual,1
62,horse,OBJECT,horse,3,switch,1,1171.4,Older,Dual,1
63,coat,OBJECT,coat,3,switch,1,1536.7,Younger,Dual,1
64,coat,OBJECT,coat,3,switch,1,1032.8,Younger,Dual,1
65,horse,OBJECT,horse,3,switch,1,1037.2,Younger,Dual,1
66,horse,OBJECT,horse,3,switch,1,1023.3,Older,Dual,1
68,horse,OBJECT,horse,3,switch,1,1021,Younger,Dual,1
69,coat,OBJECT,coat,3,switch,1,1680.5,Older,Dual,1
70,coat,OBJECT,coat,3,switch,1,1714.4,Older,Dual,1
71,coat,OBJECT,coat,3,switch,1,1502.7,Younger,Dual,1
73,coat,OBJECT,coat,3,switch,1,1135.1,Younger,Dual,1
74,horse,OBJECT,horse,3,switch,1,1478.6,Older,Dual,1
75,horse,OBJECT,horse,3,switch,1,1244.6,Younger,Dual,1
76,horse,OBJECT,horse,3,switch,1,1392.2,Older,Dual,1
77,coat,OBJECT,coat,3,switch,1,909.8,Younger,Dual,1
78,horse,OBJECT,horse,3,switch,1,1683.2,Older,Dual,1
79,horse,OBJECT,horse,3,switch,1,821.5,Older,Dual,1
80,coat,OBJECT,coat,3,switch,1,939.3,Older,Dual,1
81,coat,OBJECT,coat,3,switch,1,1077.1,Older,Dual,1
82,coat,OBJECT,coat,3,switch,1,986.5,Younger,Dual,1
83,horse,OBJECT,horse,3,switch,1,1544.6,Older,Dual,1
84,coat,OBJECT,coat,3,switch,1,1579.4,Older,Dual,1
85,horse,OBJECT,horse,3,switch,1,994.5,Older,Dual,1
87,horse,OBJECT,horse,3,switch,1,1331.9,Younger,Dual,1
88,horse,OBJECT,horse,3,switch,1,1553.6,Younger,Dual,1
89,horse,OBJECT,horse,3,switch,1,1214.4,Younger,Dual,1
90,horse,OBJECT,horse,3,switch,1,1750.6,Older,Dual,1
93,coat,OBJECT,coat,3,switch,1,1022.7,Older,Dual,1
95,coat,OBJECT,coat,3,switch,1,1365.5,Older,Dual,1
96,coat,OBJECT,coat,3,switch,1,2219.8,Older,Dual,1
97,coat,OBJECT,coat,3,switch,1,1464.8,Younger,Dual,1
98,horse,OBJECT,horse,3,switch,1,1661,Older,Dual,1
1,suitcase,OBJECT,suitcase,3,SingleNaming,1,1289.8,Younger,Single,1
1,cup,ACTION,drink,3,SingleNaming,1,1315.2,Younger,Single,1
2,suitcase,OBJECT,suitcase,3,SingleNaming,1,897.6,Younger,Single,1
2,cup,ACTION,drink,3,SingleNaming,1,1511.1,Younger,Single,1
3,eye,ACTION,see,3,SingleNaming,1,983.8,Younger,Single,1
3,coat,OBJECT,coat,3,SingleNaming,1,1030,Younger,Single,1
4,coat,OBJECT,coat,3,SingleNaming,1,1618.6,Younger,Single,1
4,eye,ACTION,see,3,SingleNaming,1,1714.2,Younger,Single,1
5,eye,ACTION,see,3,SingleNaming,1,681.6,Younger,Single,1
5,coat,OBJECT,coat,3,SingleNaming,1,2016.4,Younger,Single,1
6,suitcase,OBJECT,suitcase,3,SingleNaming,1,859.6,Younger,Single,1
6,cup,ACTION,drink,3,SingleNaming,1,1574,Younger,Single,1
7,coat,OBJECT,coat,3,SingleNaming,1,936,Younger,Single,1
7,eye,ACTION,see,3,SingleNaming,1,1001.7,Younger,Single,1
8,coat,OBJECT,coat,3,SingleNaming,1,646,Younger,Single,1
8,eye,ACTION,see,3,SingleNaming,1,950,Younger,Single,1
9,cup,ACTION,drink,3,SingleNaming,1,964.7,Younger,Single,1
9,suitcase,OBJECT,suitcase,3,SingleNaming,1,1363.6,Younger,Single,1
10,coat,OBJECT,coat,3,SingleNaming,1,1229.4,Younger,Single,1
10,eye,ACTION,see,3,SingleNaming,1,1443.4,Younger,Single,1
11,suitcase,OBJECT,suitcase,3,SingleNaming,1,997.5,Younger,Single,1
11,cup,ACTION,drink,3,SingleNaming,1,1087.4,Younger,Single,1
12,coat,OBJECT,coat,3,SingleNaming,1,1305,Younger,Single,1
12,eye,ACTION,see,3,SingleNaming,1,1312.8,Younger,Single,1
13,coat,OBJECT,coat,3,SingleNaming,1,766.3,Younger,Single,1
13,eye,ACTION,see,3,SingleNaming,1,1249.8,Younger,Single,1
14,suitcase,OBJECT,suitcase,3,SingleNaming,1,1193.9,Younger,Single,1
14,cup,ACTION,drink,3,SingleNaming,1,1226.9,Younger,Single,1
15,suitcase,OBJECT,suitcase,3,SingleNaming,1,1136,Younger,Single,1
15,cup,ACTION,drink,3,SingleNaming,1,1763.2,Younger,Single,1
16,coat,OBJECT,coat,3,SingleNaming,1,1673.9,Younger,Single,1
17,coat,OBJECT,coat,3,SingleNaming,1,1012.9,Younger,Single,1
17,eye,ACTION,see,3,SingleNaming,1,1159.6,Younger,Single,1
18,suitcase,OBJECT,suitcase,3,SingleNaming,1,955.6,Younger,Single,1
18,cup,ACTION,drink,3,SingleNaming,1,1126.5,Younger,Single,1
19,eye,ACTION,see,3,SingleNaming,1,1013,Younger,Single,1
19,coat,OBJECT,coat,3,SingleNaming,1,1015.7,Younger,Single,1
20,cup,ACTION,drink,3,SingleNaming,1,1106.7,Younger,Single,1
20,suitcase,OBJECT,suitcase,3,SingleNaming,1,1236.7,Younger,Single,1
21,cup,ACTION,drink,3,SingleNaming,1,732.4,Younger,Single,1
21,suitcase,OBJECT,suitcase,3,SingleNaming,1,1240,Younger,Single,1
22,coat,OBJECT,coat,3,SingleNaming,1,1111.7,Younger,Single,1
22,eye,ACTION,see,3,SingleNaming,1,1911.1,Younger,Single,1
23,cup,ACTION,drink,3,SingleNaming,1,1570.1,Younger,Single,1
23,suitcase,OBJECT,suitcase,3,SingleNaming,1,1840.5,Younger,Single,1
24,cup,ACTION,drink,3,SingleNaming,1,935.7,Younger,Single,1
24,suitcase,OBJECT,suitcase,3,SingleNaming,1,1868.3,Younger,Single,1
25,cup,ACTION,drink,3,SingleNaming,1,1087.5,Older,Single,1
25,suitcase,OBJECT,suitcase,3,SingleNaming,1,1425.3,Older,Single,1
26,coat,OBJECT,coat,3,SingleNaming,1,839.9,Younger,Single,1
26,eye,ACTION,see,3,SingleNaming,1,982.3,Younger,Single,1
27,coat,OBJECT,coat,3,SingleNaming,1,827.4,Older,Single,1
27,eye,ACTION,see,3,SingleNaming,1,899.4,Older,Single,1
28,cup,ACTION,drink,3,SingleNaming,1,1547.9,Older,Single,1
29,coat,OBJECT,coat,3,SingleNaming,1,710.6,Older,Single,1
30,eye,ACTION,see,3,SingleNaming,1,1602.2,Older,Single,1
31,cup,ACTION,drink,3,SingleNaming,1,998.1,Older,Single,1
31,suitcase,OBJECT,suitcase,3,SingleNaming,1,1240.3,Older,Single,1
32,eye,ACTION,see,3,SingleNaming,1,721.6,Younger,Single,1
32,coat,OBJECT,coat,3,SingleNaming,1,806.1,Younger,Single,1
33,coat,OBJECT,coat,3,SingleNaming,1,719.9,Older,Single,1
33,eye,ACTION,see,3,SingleNaming,1,963.2,Older,Single,1
34,coat,OBJECT,coat,3,SingleNaming,1,1075.4,Older,Single,1
34,eye,ACTION,see,3,SingleNaming,1,2248.5,Older,Single,1
35,coat,OBJECT,coat,3,SingleNaming,1,642,Older,Single,1
36,coat,OBJECT,coat,3,SingleNaming,1,794.6,Older,Single,1
36,eye,ACTION,see,3,SingleNaming,1,1163.2,Older,Single,1
37,suitcase,OBJECT,suitcase,3,SingleNaming,1,737.2,Older,Single,1
37,cup,ACTION,drink,3,SingleNaming,1,910.6,Older,Single,1
38,cup,ACTION,drink,3,SingleNaming,1,986.9,Older,Single,1
38,suitcase,OBJECT,suitcase,3,SingleNaming,1,1079.7,Older,Single,1
39,cup,ACTION,drink,3,SingleNaming,1,904.9,Younger,Single,1
40,coat,OBJECT,coat,3,SingleNaming,1,1059.1,Older,Single,1
40,eye,ACTION,see,3,SingleNaming,1,1735.5,Older,Single,1
41,cup,ACTION,drink,3,SingleNaming,1,715,Older,Single,1
41,suitcase,OBJECT,suitcase,3,SingleNaming,1,858.7,Older,Single,1
42,eye,ACTION,see,3,SingleNaming,1,903.3,Older,Single,1
42,coat,OBJECT,coat,3,SingleNaming,1,938.9,Older,Single,1
43,eye,ACTION,see,3,SingleNaming,1,716.2,Younger,Single,1
43,coat,OBJECT,coat,3,SingleNaming,1,950.2,Younger,Single,1
44,eye,ACTION,see,3,SingleNaming,1,922.9,Older,Single,1
44,coat,OBJECT,coat,3,SingleNaming,1,1005,Older,Single,1
45,coat,OBJECT,coat,3,SingleNaming,1,946.6,Younger,Single,1
45,eye,ACTION,see,3,SingleNaming,1,979.2,Younger,Single,1
46,cup,ACTION,drink,3,SingleNaming,1,1192.1,Older,Single,1
46,suitcase,OBJECT,suitcase,3,SingleNaming,1,1411.8,Older,Single,1
47,eye,ACTION,see,3,SingleNaming,1,1289.8,Younger,Single,1
47,coat,OBJECT,coat,3,SingleNaming,1,1315.2,Younger,Single,1
48,suitcase,OBJECT,suitcase,3,SingleNaming,1,1467.7,Older,Single,1
48,cup,ACTION,drink,3,SingleNaming,1,1531.8,Older,Single,1
49,coat,OBJECT,coat,3,SingleNaming,1,885.6,Older,Single,1
49,eye,ACTION,see,3,SingleNaming,1,1419.2,Older,Single,1
50,cup,ACTION,drink,3,SingleNaming,1,1066.4,Older,Single,1
50,suitcase,OBJECT,suitcase,3,SingleNaming,1,1578.7,Older,Single,1
51,cup,ACTION,drink,3,SingleNaming,1,946.6,Older,Single,1
51,suitcase,OBJECT,suitcase,3,SingleNaming,1,2519.4,Older,Single,1
52,cup,ACTION,drink,3,SingleNaming,1,943,Older,Single,1
52,suitcase,OBJECT,suitcase,3,SingleNaming,1,1077.4,Older,Single,1
53,suitcase,OBJECT,suitcase,3,SingleNaming,1,1349.7,Younger,Single,1
53,cup,ACTION,drink,3,SingleNaming,1,1545.2,Younger,Single,1
54,coat,OBJECT,coat,3,SingleNaming,1,1128.7,Older,Single,1
54,eye,ACTION,see,3,SingleNaming,1,1905.4,Older,Single,1
55,cup,ACTION,drink,3,SingleNaming,1,693.2,Younger,Single,1
55,suitcase,OBJECT,suitcase,3,SingleNaming,1,1204.1,Younger,Single,1
56,suitcase,OBJECT,suitcase,3,SingleNaming,1,688,Younger,Single,1
56,cup,ACTION,drink,3,SingleNaming,1,744.1,Younger,Single,1
57,coat,OBJECT,coat,3,SingleNaming,1,801.5,Younger,Single,1
57,eye,ACTION,see,3,SingleNaming,1,1282.5,Younger,Single,1
58,cup,ACTION,drink,3,SingleNaming,1,955.9,Younger,Single,1
58,suitcase,OBJECT,suitcase,3,SingleNaming,1,1950.7,Younger,Single,1
59,suitcase,OBJECT,suitcase,3,SingleNaming,1,991.2,Older,Single,1
59,cup,ACTION,drink,3,SingleNaming,1,1206,Older,Single,1
60,cup,ACTION,drink,3,SingleNaming,1,1124,Older,Single,1
60,suitcase,OBJECT,suitcase,3,SingleNaming,1,1127.9,Older,Single,1
61,coat,OBJECT,coat,3,SingleNaming,1,1215.5,Younger,Single,1
61,eye,ACTION,see,3,SingleNaming,1,1233.9,Younger,Single,1
62,coat,OBJECT,coat,3,SingleNaming,1,997.3,Older,Single,1
62,eye,ACTION,see,3,SingleNaming,1,1468.8,Older,Single,1
63,cup,ACTION,drink,3,SingleNaming,1,722.8,Younger,Single,1
63,suitcase,OBJECT,suitcase,3,SingleNaming,1,1084.4,Younger,Single,1
64,cup,ACTION,drink,3,SingleNaming,1,843.4,Younger,Single,1
64,suitcase,OBJECT,suitcase,3,SingleNaming,1,2183.3,Younger,Single,1
65,coat,OBJECT,coat,3,SingleNaming,1,742.3,Younger,Single,1
65,eye,ACTION,see,3,SingleNaming,1,756.3,Younger,Single,1
66,coat,OBJECT,coat,3,SingleNaming,1,884.9,Older,Single,1
66,eye,ACTION,see,3,SingleNaming,1,1515.5,Older,Single,1
67,eye,ACTION,see,3,SingleNaming,1,998.8,Younger,Single,1
67,coat,OBJECT,coat,3,SingleNaming,1,1135.1,Younger,Single,1
68,coat,OBJECT,coat,3,SingleNaming,1,984.3,Younger,Single,1
68,eye,ACTION,see,3,SingleNaming,1,1080.7,Younger,Single,1
69,suitcase,OBJECT,suitcase,3,SingleNaming,1,1126.4,Older,Single,1
69,cup,ACTION,drink,3,SingleNaming,1,1188.2,Older,Single,1
70,cup,ACTION,drink,3,SingleNaming,1,1161.3,Older,Single,1
70,suitcase,OBJECT,suitcase,3,SingleNaming,1,1245.3,Older,Single,1
71,cup,ACTION,drink,3,SingleNaming,1,888.2,Younger,Single,1
71,suitcase,OBJECT,suitcase,3,SingleNaming,1,1100,Younger,Single,1
72,suitcase,OBJECT,suitcase,3,SingleNaming,1,1104.9,Older,Single,1
72,cup,ACTION,drink,3,SingleNaming,1,1209.8,Older,Single,1
73,cup,ACTION,drink,3,SingleNaming,1,871,Younger,Single,1
73,suitcase,OBJECT,suitcase,3,SingleNaming,1,1171.4,Younger,Single,1
74,coat,OBJECT,coat,3,SingleNaming,1,874,Older,Single,1
74,eye,ACTION,see,3,SingleNaming,1,1349.2,Older,Single,1
75,coat,OBJECT,coat,3,SingleNaming,1,884.9,Younger,Single,1
75,eye,ACTION,see,3,SingleNaming,1,1098.8,Younger,Single,1
76,coat,OBJECT,coat,3,SingleNaming,1,1104.1,Older,Single,1
76,eye,ACTION,see,3,SingleNaming,1,1827.9,Older,Single,1
77,suitcase,OBJECT,suitcase,3,SingleNaming,1,959.1,Younger,Single,1
77,cup,ACTION,drink,3,SingleNaming,1,1128.3,Younger,Single,1
78,coat,OBJECT,coat,3,SingleNaming,1,1126.5,Older,Single,1
78,eye,ACTION,see,3,SingleNaming,1,1239.2,Older,Single,1
79,coat,OBJECT,coat,3,SingleNaming,1,834.2,Older,Single,1
79,eye,ACTION,see,3,SingleNaming,1,991.6,Older,Single,1
80,suitcase,OBJECT,suitcase,3,SingleNaming,1,1178.7,Older,Single,1
80,cup,ACTION,drink,3,SingleNaming,1,1308.3,Older,Single,1
81,cup,ACTION,drink,3,SingleNaming,1,1357.8,Older,Single,1
81,suitcase,OBJECT,suitcase,3,SingleNaming,1,1505.1,Older,Single,1
82,cup,ACTION,drink,3,SingleNaming,1,1178.3,Younger,Single,1
82,suitcase,OBJECT,suitcase,3,SingleNaming,1,1559.5,Younger,Single,1
83,coat,OBJECT,coat,3,SingleNaming,1,1129.4,Older,Single,1
84,suitcase,OBJECT,suitcase,3,SingleNaming,1,1238,Older,Single,1
84,cup,ACTION,drink,3,SingleNaming,1,1722.7,Older,Single,1
85,eye,ACTION,see,3,SingleNaming,1,1076.5,Older,Single,1
85,coat,OBJECT,coat,3,SingleNaming,1,1157,Older,Single,1
86,cup,ACTION,drink,3,SingleNaming,1,1097.6,Older,Single,1
86,suitcase,OBJECT,suitcase,3,SingleNaming,1,1155.7,Older,Single,1
87,coat,OBJECT,coat,3,SingleNaming,1,941,Younger,Single,1
88,coat,OBJECT,coat,3,SingleNaming,1,892.2,Younger,Single,1
88,eye,ACTION,see,3,SingleNaming,1,949.9,Younger,Single,1
89,eye,ACTION,see,3,SingleNaming,1,850.1,Younger,Single,1
89,coat,OBJECT,coat,3,SingleNaming,1,1221.8,Younger,Single,1
90,coat,OBJECT,coat,3,SingleNaming,1,921.2,Older,Single,1
90,eye,ACTION,see,3,SingleNaming,1,1363.8,Older,Single,1
91,cup,ACTION,drink,3,SingleNaming,1,1124.4,Older,Single,1
92,coat,OBJECT,coat,3,SingleNaming,1,721.3,Older,Single,1
92,eye,ACTION,see,3,SingleNaming,1,1044.7,Older,Single,1
93,cup,ACTION,drink,3,SingleNaming,1,986.5,Older,Single,1
93,suitcase,OBJECT,suitcase,3,SingleNaming,1,1461.7,Older,Single,1
94,suitcase,OBJECT,suitcase,3,SingleNaming,1,924.8,Older,Single,1
94,cup,ACTION,drink,3,SingleNaming,1,1835.1,Older,Single,1
95,cup,ACTION,drink,3,SingleNaming,1,1131.1,Older,Single,1
95,suitcase,OBJECT,suitcase,3,SingleNaming,1,1254.8,Older,Single,1
96,suitcase,OBJECT,suitcase,3,SingleNaming,1,1248.2,Older,Single,1
96,cup,ACTION,drink,3,SingleNaming,1,1554.4,Older,Single,1
97,suitcase,OBJECT,suitcase,3,SingleNaming,1,907,Younger,Single,1
97,cup,ACTION,drink,3,SingleNaming,1,1104.9,Younger,Single,1
98,coat,OBJECT,coat,3,SingleNaming,1,937.3,Older,Single,1
98,eye,ACTION,see,3,SingleNaming,1,1469.2,Older,Single,1
99,suitcase,OBJECT,suitcase,3,SingleNaming,1,1048.9,Older,Single,1
99,cup,ACTION,drink,3,SingleNaming,1,1184.1,Older,Single,1
100,suitcase,OBJECT,suitcase,3,SingleNaming,1,1120.6,Older,Single,1
100,cup,ACTION,drink,3,SingleNaming,1,1276.6,Older,Single,1
2,trophy,OBJECT,trophy,4,nonswitch,1,1113.7,Younger,Dual,1
3,eye,OBJECT,eye,4,nonswitch,1,2263,Younger,Dual,1
4,eye,OBJECT,eye,4,nonswitch,1,1465.9,Younger,Dual,1
5,eye,OBJECT,eye,4,nonswitch,1,1327.4,Younger,Dual,1
6,trophy,OBJECT,trophy,4,nonswitch,1,1352.7,Younger,Dual,1
8,eye,OBJECT,eye,4,nonswitch,1,1186.8,Younger,Dual,1
9,trophy,OBJECT,trophy,4,nonswitch,1,1426.2,Younger,Dual,1
10,eye,OBJECT,eye,4,nonswitch,1,1124.3,Younger,Dual,1
11,trophy,OBJECT,trophy,4,nonswitch,1,1462.7,Younger,Dual,1
12,eye,OBJECT,eye,4,nonswitch,1,1478,Younger,Dual,1
14,trophy,OBJECT,trophy,4,nonswitch,1,1161.2,Younger,Dual,1
15,trophy,OBJECT,trophy,4,nonswitch,1,1614.1,Younger,Dual,1
16,eye,OBJECT,eye,4,nonswitch,1,2007.8,Younger,Dual,1
18,trophy,OBJECT,trophy,4,nonswitch,1,1345.1,Younger,Dual,1
19,eye,OBJECT,eye,4,nonswitch,1,1276.6,Younger,Dual,1
21,trophy,OBJECT,trophy,4,nonswitch,1,1399.9,Younger,Dual,1
22,eye,OBJECT,eye,4,nonswitch,1,1177.7,Younger,Dual,1
23,trophy,OBJECT,trophy,4,nonswitch,1,1681.4,Younger,Dual,1
25,trophy,OBJECT,trophy,4,nonswitch,1,1477.7,Older,Dual,1
26,eye,OBJECT,eye,4,nonswitch,1,1504.5,Younger,Dual,1
27,eye,OBJECT,eye,4,nonswitch,1,1600.5,Older,Dual,1
28,trophy,OBJECT,trophy,4,nonswitch,1,1757.7,Older,Dual,1
29,eye,OBJECT,eye,4,nonswitch,1,1668.3,Older,Dual,1
30,eye,OBJECT,eye,4,nonswitch,1,1347,Older,Dual,1
32,eye,OBJECT,eye,4,nonswitch,1,1463.5,Younger,Dual,1
33,eye,OBJECT,eye,4,nonswitch,1,1484.6,Older,Dual,1
34,eye,OBJECT,eye,4,nonswitch,1,1271.8,Older,Dual,1
36,eye,OBJECT,eye,4,nonswitch,1,1512.1,Older,Dual,1
37,trophy,OBJECT,trophy,4,nonswitch,1,1502.6,Older,Dual,1
38,trophy,OBJECT,trophy,4,nonswitch,1,1014.6,Older,Dual,1
39,trophy,OBJECT,trophy,4,nonswitch,1,1705.5,Younger,Dual,1
40,eye,OBJECT,eye,4,nonswitch,1,1310.5,Older,Dual,1
41,trophy,OBJECT,trophy,4,nonswitch,1,1410.5,Older,Dual,1
42,eye,OBJECT,eye,4,nonswitch,1,1360.4,Older,Dual,1
43,eye,OBJECT,eye,4,nonswitch,1,1277.7,Younger,Dual,1
44,eye,OBJECT,eye,4,nonswitch,1,1154.8,Older,Dual,1
45,eye,OBJECT,eye,4,nonswitch,1,1287.5,Younger,Dual,1
46,trophy,OBJECT,trophy,4,nonswitch,1,1574,Older,Dual,1
48,trophy,OBJECT,trophy,4,nonswitch,1,1284.8,Older,Dual,1
49,eye,OBJECT,eye,4,nonswitch,1,1542.6,Older,Dual,1
50,trophy,OBJECT,trophy,4,nonswitch,1,1604.1,Older,Dual,1
51,trophy,OBJECT,trophy,4,nonswitch,1,1448.3,Older,Dual,1
52,trophy,OBJECT,trophy,4,nonswitch,1,1655.8,Older,Dual,1
53,trophy,OBJECT,trophy,4,nonswitch,1,1360.5,Younger,Dual,1
55,trophy,OBJECT,trophy,4,nonswitch,1,1707.8,Younger,Dual,1
57,eye,OBJECT,eye,4,nonswitch,1,1268,Younger,Dual,1
58,trophy,OBJECT,trophy,4,nonswitch,1,1359.1,Younger,Dual,1
59,trophy,OBJECT,trophy,4,nonswitch,1,1085.4,Older,Dual,1
60,trophy,OBJECT,trophy,4,nonswitch,1,1403.1,Older,Dual,1
61,eye,OBJECT,eye,4,nonswitch,1,2151.8,Younger,Dual,1
62,eye,OBJECT,eye,4,nonswitch,1,1201,Older,Dual,1
63,trophy,OBJECT,trophy,4,nonswitch,1,1090.4,Younger,Dual,1
64,trophy,OBJECT,trophy,4,nonswitch,1,979.3,Younger,Dual,1
65,eye,OBJECT,eye,4,nonswitch,1,866.8,Younger,Dual,1
66,eye,OBJECT,eye,4,nonswitch,1,940.9,Older,Dual,1
68,eye,OBJECT,eye,4,nonswitch,1,1113.2,Younger,Dual,1
69,trophy,OBJECT,trophy,4,nonswitch,1,1819.3,Older,Dual,1
70,trophy,OBJECT,trophy,4,nonswitch,1,1687.5,Older,Dual,1
71,trophy,OBJECT,trophy,4,nonswitch,1,1361,Younger,Dual,1
72,trophy,OBJECT,trophy,4,nonswitch,1,1733.5,Older,Dual,1
73,trophy,OBJECT,trophy,4,nonswitch,1,1247,Younger,Dual,1
74,eye,OBJECT,eye,4,nonswitch,1,1385,Older,Dual,1
75,eye,OBJECT,eye,4,nonswitch,1,1007.5,Younger,Dual,1
76,eye,OBJECT,eye,4,nonswitch,1,1664.6,Older,Dual,1
77,trophy,OBJECT,trophy,4,nonswitch,1,945.5,Younger,Dual,1
78,eye,OBJECT,eye,4,nonswitch,1,1284.9,Older,Dual,1
79,eye,OBJECT,eye,4,nonswitch,1,865.2,Older,Dual,1
80,trophy,OBJECT,trophy,4,nonswitch,1,1760.6,Older,Dual,1
81,trophy,OBJECT,trophy,4,nonswitch,1,1214.9,Older,Dual,1
82,trophy,OBJECT,trophy,4,nonswitch,1,1113.4,Younger,Dual,1
83,eye,OBJECT,eye,4,nonswitch,1,1352.6,Older,Dual,1
84,trophy,OBJECT,trophy,4,nonswitch,1,1371.2,Older,Dual,1
85,eye,OBJECT,eye,4,nonswitch,1,845.3,Older,Dual,1
87,eye,OBJECT,eye,4,nonswitch,1,1277.4,Younger,Dual,1
88,eye,OBJECT,eye,4,nonswitch,1,1416.2,Younger,Dual,1
90,eye,OBJECT,eye,4,nonswitch,1,1299.4,Older,Dual,1
93,trophy,OBJECT,trophy,4,nonswitch,1,1309.2,Older,Dual,1
95,trophy,OBJECT,trophy,4,nonswitch,1,1456.6,Older,Dual,1
96,trophy,OBJECT,trophy,4,nonswitch,1,2195.7,Older,Dual,1
97,trophy,OBJECT,trophy,4,nonswitch,1,1831.6,Younger,Dual,1
98,eye,OBJECT,eye,4,nonswitch,1,1580.1,Older,Dual,1
100,trophy,OBJECT,trophy,4,nonswitch,1,1722.7,Older,Dual,1
1,broom,ACTION,sweep,4,SingleNaming,1,1320.1,Younger,Single,1
1,horse,OBJECT,horse,4,SingleNaming,1,1682.8,Younger,Single,1
2,broom,ACTION,sweep,4,SingleNaming,1,708.8,Younger,Single,1
2,horse,OBJECT,horse,4,SingleNaming,1,748.6,Younger,Single,1
3,broom,ACTION,sweep,4,SingleNaming,1,1134.8,Younger,Single,1
3,newspaper,OBJECT,newspaper,4,SingleNaming,1,1512.3,Younger,Single,1
4,newspaper,OBJECT,newspaper,4,SingleNaming,1,783.4,Younger,Single,1
4,broom,ACTION,sweep,4,SingleNaming,1,1376.7,Younger,Single,1
5,broom,ACTION,sweep,4,SingleNaming,1,505.1,Younger,Single,1
5,newspaper,OBJECT,newspaper,4,SingleNaming,1,2085.3,Younger,Single,1
6,broom,ACTION,sweep,4,SingleNaming,1,1533.6,Younger,Single,1
6,horse,OBJECT,horse,4,SingleNaming,1,1828.7,Younger,Single,1
7,broom,ACTION,sweep,4,SingleNaming,1,1069,Younger,Single,1
7,newspaper,OBJECT,newspaper,4,SingleNaming,1,2337.8,Younger,Single,1
8,broom,ACTION,sweep,4,SingleNaming,1,900,Younger,Single,1
8,newspaper,OBJECT,newspaper,4,SingleNaming,1,1157,Younger,Single,1
9,broom,ACTION,sweep,4,SingleNaming,1,1233.1,Younger,Single,1
10,newspaper,OBJECT,newspaper,4,SingleNaming,1,993.7,Younger,Single,1
10,broom,ACTION,sweep,4,SingleNaming,1,1827.8,Younger,Single,1
11,broom,ACTION,sweep,4,SingleNaming,1,827.6,Younger,Single,1
11,horse,OBJECT,horse,4,SingleNaming,1,1856.9,Younger,Single,1
12,newspaper,OBJECT,newspaper,4,SingleNaming,1,914.9,Younger,Single,1
13,newspaper,OBJECT,newspaper,4,SingleNaming,1,1091.5,Younger,Single,1
13,broom,ACTION,sweep,4,SingleNaming,1,1409.9,Younger,Single,1
14,broom,ACTION,sweep,4,SingleNaming,1,1081.1,Younger,Single,1
14,horse,OBJECT,horse,4,SingleNaming,1,1128.7,Younger,Single,1
15,horse,OBJECT,horse,4,SingleNaming,1,1396.1,Younger,Single,1
15,broom,ACTION,sweep,4,SingleNaming,1,990.6,Younger,Single,1
16,newspaper,OBJECT,newspaper,4,SingleNaming,1,1256.8,Younger,Single,1
17,newspaper,OBJECT,newspaper,4,SingleNaming,1,1118,Younger,Single,1
17,broom,ACTION,sweep,4,SingleNaming,1,2705.5,Younger,Single,1
18,horse,OBJECT,horse,4,SingleNaming,1,783.9,Younger,Single,1
18,broom,ACTION,sweep,4,SingleNaming,1,1029.3,Younger,Single,1
19,newspaper,OBJECT,newspaper,4,SingleNaming,1,1135.1,Younger,Single,1
19,broom,ACTION,sweep,4,SingleNaming,1,1028.5,Younger,Single,1
20,broom,ACTION,sweep,4,SingleNaming,1,1252.2,Younger,Single,1
20,horse,OBJECT,horse,4,SingleNaming,1,1461,Younger,Single,1
21,broom,ACTION,sweep,4,SingleNaming,1,622,Younger,Single,1
21,horse,OBJECT,horse,4,SingleNaming,1,1069.7,Younger,Single,1
22,newspaper,OBJECT,newspaper,4,SingleNaming,1,1417.1,Younger,Single,1
22,broom,ACTION,sweep,4,SingleNaming,1,1582.1,Younger,Single,1
23,broom,ACTION,sweep,4,SingleNaming,1,1248.8,Younger,Single,1
24,broom,ACTION,sweep,4,SingleNaming,1,824.6,Younger,Single,1
24,horse,OBJECT,horse,4,SingleNaming,1,931.7,Younger,Single,1
25,broom,ACTION,sweep,4,SingleNaming,1,915.2,Older,Single,1
25,horse,OBJECT,horse,4,SingleNaming,1,971.7,Older,Single,1
26,newspaper,OBJECT,newspaper,4,SingleNaming,1,805.4,Younger,Single,1
26,broom,ACTION,sweep,4,SingleNaming,1,2329.6,Younger,Single,1
27,newspaper,OBJECT,newspaper,4,SingleNaming,1,935.5,Older,Single,1
27,broom,ACTION,sweep,4,SingleNaming,1,1196.8,Older,Single,1
28,broom,ACTION,sweep,4,SingleNaming,1,1281.4,Older,Single,1
28,horse,OBJECT,horse,4,SingleNaming,1,2041.8,Older,Single,1
29,newspaper,OBJECT,newspaper,4,SingleNaming,1,869.7,Older,Single,1
29,broom,ACTION,sweep,4,SingleNaming,1,1714.6,Older,Single,1
30,broom,ACTION,sweep,4,SingleNaming,1,1344.9,Older,Single,1
31,broom,ACTION,sweep,4,SingleNaming,1,815.5,Older,Single,1
31,horse,OBJECT,horse,4,SingleNaming,1,1366.6,Older,Single,1
32,newspaper,OBJECT,newspaper,4,SingleNaming,1,784.4,Younger,Single,1
32,broom,ACTION,sweep,4,SingleNaming,1,956.1,Younger,Single,1
33,newspaper,OBJECT,newspaper,4,SingleNaming,1,850.5,Older,Single,1
33,broom,ACTION,sweep,4,SingleNaming,1,856.2,Older,Single,1
34,newspaper,OBJECT,newspaper,4,SingleNaming,1,1046.3,Older,Single,1
34,broom,ACTION,sweep,4,SingleNaming,1,1796.9,Older,Single,1
35,newspaper,OBJECT,newspaper,4,SingleNaming,1,993.7,Older,Single,1
35,broom,ACTION,sweep,4,SingleNaming,1,2012.8,Older,Single,1
36,newspaper,OBJECT,newspaper,4,SingleNaming,1,1155.4,Older,Single,1
37,horse,OBJECT,horse,4,SingleNaming,1,853.4,Older,Single,1
37,broom,ACTION,sweep,4,SingleNaming,1,875.9,Older,Single,1
38,horse,OBJECT,horse,4,SingleNaming,1,936.1,Older,Single,1
38,broom,ACTION,sweep,4,SingleNaming,1,1127.9,Older,Single,1
39,broom,ACTION,sweep,4,SingleNaming,1,709.2,Younger,Single,1
39,horse,OBJECT,horse,4,SingleNaming,1,1001,Younger,Single,1
40,newspaper,OBJECT,newspaper,4,SingleNaming,1,1073.5,Older,Single,1
40,broom,ACTION,sweep,4,SingleNaming,1,1200.5,Older,Single,1
41,horse,OBJECT,horse,4,SingleNaming,1,732.3,Older,Single,1
41,broom,ACTION,sweep,4,SingleNaming,1,804.1,Older,Single,1
42,newspaper,OBJECT,newspaper,4,SingleNaming,1,874.5,Older,Single,1
42,broom,ACTION,sweep,4,SingleNaming,1,1184,Older,Single,1
43,broom,ACTION,sweep,4,SingleNaming,1,889,Younger,Single,1
43,newspaper,OBJECT,newspaper,4,SingleNaming,1,1127.4,Younger,Single,1
44,newspaper,OBJECT,newspaper,4,SingleNaming,1,921.2,Older,Single,1
44,broom,ACTION,sweep,4,SingleNaming,1,1210.8,Older,Single,1
45,newspaper,OBJECT,newspaper,4,SingleNaming,1,1312.9,Younger,Single,1
45,broom,ACTION,sweep,4,SingleNaming,1,1726.3,Younger,Single,1
46,horse,OBJECT,horse,4,SingleNaming,1,1123.7,Older,Single,1
46,broom,ACTION,sweep,4,SingleNaming,1,1457.9,Older,Single,1
47,newspaper,OBJECT,newspaper,4,SingleNaming,1,1320.1,Younger,Single,1
48,broom,ACTION,sweep,4,SingleNaming,1,964.5,Older,Single,1
48,horse,OBJECT,horse,4,SingleNaming,1,1012.8,Older,Single,1
49,newspaper,OBJECT,newspaper,4,SingleNaming,1,760.8,Older,Single,1
49,broom,ACTION,sweep,4,SingleNaming,1,1142.7,Older,Single,1
50,broom,ACTION,sweep,4,SingleNaming,1,1066.8,Older,Single,1
51,broom,ACTION,sweep,4,SingleNaming,1,709,Older,Single,1
51,horse,OBJECT,horse,4,SingleNaming,1,1569.2,Older,Single,1
52,broom,ACTION,sweep,4,SingleNaming,1,779.2,Older,Single,1
52,horse,OBJECT,horse,4,SingleNaming,1,1146,Older,Single,1
53,broom,ACTION,sweep,4,SingleNaming,1,1173.3,Younger,Single,1
53,horse,OBJECT,horse,4,SingleNaming,1,1183,Younger,Single,1
54,broom,ACTION,sweep,4,SingleNaming,1,1261.2,Older,Single,1
55,broom,ACTION,sweep,4,SingleNaming,1,1204.6,Younger,Single,1
55,horse,OBJECT,horse,4,SingleNaming,1,2372.1,Younger,Single,1
56,broom,ACTION,sweep,4,SingleNaming,1,714.7,Younger,Single,1
56,horse,OBJECT,horse,4,SingleNaming,1,821.4,Younger,Single,1
57,newspaper,OBJECT,newspaper,4,SingleNaming,1,911.6,Younger,Single,1
57,broom,ACTION,sweep,4,SingleNaming,1,1278.9,Younger,Single,1
58,broom,ACTION,sweep,4,SingleNaming,1,673.7,Younger,Single,1
58,horse,OBJECT,horse,4,SingleNaming,1,1044.2,Younger,Single,1
59,broom,ACTION,sweep,4,SingleNaming,1,882,Older,Single,1
59,horse,OBJECT,horse,4,SingleNaming,1,913.9,Older,Single,1
60,broom,ACTION,sweep,4,SingleNaming,1,964.3,Older,Single,1
60,horse,OBJECT,horse,4,SingleNaming,1,1196.1,Older,Single,1
61,newspaper,OBJECT,newspaper,4,SingleNaming,1,1096.7,Younger,Single,1
61,broom,ACTION,sweep,4,SingleNaming,1,1299.2,Younger,Single,1
62,newspaper,OBJECT,newspaper,4,SingleNaming,1,942.9,Older,Single,1
62,broom,ACTION,sweep,4,SingleNaming,1,2079.5,Older,Single,1
63,broom,ACTION,sweep,4,SingleNaming,1,593.3,Younger,Single,1
63,horse,OBJECT,horse,4,SingleNaming,1,1002.8,Younger,Single,1
64,broom,ACTION,sweep,4,SingleNaming,1,1014.4,Younger,Single,1
64,horse,OBJECT,horse,4,SingleNaming,1,1527.5,Younger,Single,1
65,newspaper,OBJECT,newspaper,4,SingleNaming,1,728,Younger,Single,1
65,broom,ACTION,sweep,4,SingleNaming,1,882.6,Younger,Single,1
66,newspaper,OBJECT,newspaper,4,SingleNaming,1,929.5,Older,Single,1
66,broom,ACTION,sweep,4,SingleNaming,1,1087.7,Older,Single,1
67,newspaper,OBJECT,newspaper,4,SingleNaming,1,779.7,Younger,Single,1
67,broom,ACTION,sweep,4,SingleNaming,1,1867.7,Younger,Single,1
68,newspaper,OBJECT,newspaper,4,SingleNaming,1,942.4,Younger,Single,1
68,broom,ACTION,sweep,4,SingleNaming,1,1175,Younger,Single,1
69,broom,ACTION,sweep,4,SingleNaming,1,1049,Older,Single,1
69,horse,OBJECT,horse,4,SingleNaming,1,1159.1,Older,Single,1
70,broom,ACTION,sweep,4,SingleNaming,1,1291.1,Older,Single,1
70,horse,OBJECT,horse,4,SingleNaming,1,1529.5,Older,Single,1
71,horse,OBJECT,horse,4,SingleNaming,1,837.4,Younger,Single,1
71,broom,ACTION,sweep,4,SingleNaming,1,891.1,Younger,Single,1
72,horse,OBJECT,horse,4,SingleNaming,1,967.4,Older,Single,1
72,broom,ACTION,sweep,4,SingleNaming,1,1077.6,Older,Single,1
73,broom,ACTION,sweep,4,SingleNaming,1,869.5,Younger,Single,1
73,horse,OBJECT,horse,4,SingleNaming,1,904.5,Younger,Single,1
74,newspaper,OBJECT,newspaper,4,SingleNaming,1,824,Older,Single,1
74,broom,ACTION,sweep,4,SingleNaming,1,1720.8,Older,Single,1
75,newspaper,OBJECT,newspaper,4,SingleNaming,1,868.6,Younger,Single,1
75,broom,ACTION,sweep,4,SingleNaming,1,1169.5,Younger,Single,1
76,newspaper,OBJECT,newspaper,4,SingleNaming,1,1068.9,Older,Single,1
76,broom,ACTION,sweep,4,SingleNaming,1,1794.6,Older,Single,1
77,broom,ACTION,sweep,4,SingleNaming,1,549.5,Younger,Single,1
77,horse,OBJECT,horse,4,SingleNaming,1,1286.5,Younger,Single,1
78,newspaper,OBJECT,newspaper,4,SingleNaming,1,1216.5,Older,Single,1
78,broom,ACTION,sweep,4,SingleNaming,1,1932.7,Older,Single,1
79,newspaper,OBJECT,newspaper,4,SingleNaming,1,1068.8,Older,Single,1
79,broom,ACTION,sweep,4,SingleNaming,1,1152.4,Older,Single,1
80,horse,OBJECT,horse,4,SingleNaming,1,881.3,Older,Single,1
80,broom,ACTION,sweep,4,SingleNaming,1,1066.2,Older,Single,1
81,broom,ACTION,sweep,4,SingleNaming,1,1026.2,Older,Single,1
81,horse,OBJECT,horse,4,SingleNaming,1,1824.5,Older,Single,1
82,horse,OBJECT,horse,4,SingleNaming,1,1264.7,Younger,Single,1
82,broom,ACTION,sweep,4,SingleNaming,1,1403.5,Younger,Single,1
83,newspaper,OBJECT,newspaper,4,SingleNaming,1,1070.1,Older,Single,1
84,horse,OBJECT,horse,4,SingleNaming,1,1130.5,Older,Single,1
84,broom,ACTION,sweep,4,SingleNaming,1,1252.2,Older,Single,1
85,broom,ACTION,sweep,4,SingleNaming,1,822.3,Older,Single,1
85,newspaper,OBJECT,newspaper,4,SingleNaming,1,1003.3,Older,Single,1
86,broom,ACTION,sweep,4,SingleNaming,1,944,Older,Single,1
86,horse,OBJECT,horse,4,SingleNaming,1,1240.2,Older,Single,1
87,broom,ACTION,sweep,4,SingleNaming,1,1204.4,Younger,Single,1
87,newspaper,OBJECT,newspaper,4,SingleNaming,1,1546.2,Younger,Single,1
88,broom,ACTION,sweep,4,SingleNaming,1,874.1,Younger,Single,1
88,newspaper,OBJECT,newspaper,4,SingleNaming,1,973.5,Younger,Single,1
89,broom,ACTION,sweep,4,SingleNaming,1,857.4,Younger,Single,1
89,newspaper,OBJECT,newspaper,4,SingleNaming,1,1781.1,Younger,Single,1
90,newspaper,OBJECT,newspaper,4,SingleNaming,1,1092.8,Older,Single,1
90,broom,ACTION,sweep,4,SingleNaming,1,2097.4,Older,Single,1
91,broom,ACTION,sweep,4,SingleNaming,1,1493.3,Older,Single,1
92,newspaper,OBJECT,newspaper,4,SingleNaming,1,685.2,Older,Single,1
92,broom,ACTION,sweep,4,SingleNaming,1,1060.8,Older,Single,1
93,broom,ACTION,sweep,4,SingleNaming,1,939.3,Older,Single,1
93,horse,OBJECT,horse,4,SingleNaming,1,1443.5,Older,Single,1
94,broom,ACTION,sweep,4,SingleNaming,1,845,Older,Single,1
94,horse,OBJECT,horse,4,SingleNaming,1,939.5,Older,Single,1
95,broom,ACTION,sweep,4,SingleNaming,1,1127.3,Older,Single,1
95,horse,OBJECT,horse,4,SingleNaming,1,1358.6,Older,Single,1
96,broom,ACTION,sweep,4,SingleNaming,1,1172.9,Older,Single,1
96,horse,OBJECT,horse,4,SingleNaming,1,2280.9,Older,Single,1
97,broom,ACTION,sweep,4,SingleNaming,1,885.4,Younger,Single,1
97,horse,OBJECT,horse,4,SingleNaming,1,953.8,Younger,Single,1
98,broom,ACTION,sweep,4,SingleNaming,1,1110.6,Older,Single,1
98,newspaper,OBJECT,newspaper,4,SingleNaming,1,1162,Older,Single,1
99,broom,ACTION,sweep,4,SingleNaming,1,885.2,Older,Single,1
99,horse,OBJECT,horse,4,SingleNaming,1,976.8,Older,Single,1
100,horse,OBJECT,horse,4,SingleNaming,1,1001,Older,Single,1
100,broom,ACTION,sweep,4,SingleNaming,1,1517,Older,Single,1
1,candle,OBJECT,candle,5,nonswitch,1,1715.6,Younger,Dual,1
2,candle,OBJECT,candle,5,nonswitch,1,988.5,Younger,Dual,1
3,suitcase,OBJECT,suitcase,5,nonswitch,1,1110,Younger,Dual,1
4,suitcase,OBJECT,suitcase,5,nonswitch,1,1796.1,Younger,Dual,1
6,candle,OBJECT,candle,5,nonswitch,1,1204.1,Younger,Dual,1
7,suitcase,OBJECT,suitcase,5,nonswitch,1,1239.5,Younger,Dual,1
8,suitcase,OBJECT,suitcase,5,nonswitch,1,1146.3,Younger,Dual,1
9,candle,OBJECT,candle,5,nonswitch,1,1466.7,Younger,Dual,1
10,suitcase,OBJECT,suitcase,5,nonswitch,1,875.7,Younger,Dual,1
12,suitcase,OBJECT,suitcase,5,nonswitch,1,1341.9,Younger,Dual,1
13,suitcase,OBJECT,suitcase,5,nonswitch,1,1290.4,Younger,Dual,1
14,candle,OBJECT,candle,5,nonswitch,1,1564.2,Younger,Dual,1
15,candle,OBJECT,candle,5,nonswitch,1,1574,Younger,Dual,1
16,suitcase,OBJECT,suitcase,5,nonswitch,1,1468.8,Younger,Dual,1
18,candle,OBJECT,candle,5,nonswitch,1,1163.6,Younger,Dual,1
19,suitcase,OBJECT,suitcase,5,nonswitch,1,1581.2,Younger,Dual,1
20,candle,OBJECT,candle,5,nonswitch,1,1376.1,Younger,Dual,1
21,candle,OBJECT,candle,5,nonswitch,1,1366.9,Younger,Dual,1
22,suitcase,OBJECT,suitcase,5,nonswitch,1,1056.5,Younger,Dual,1
23,candle,OBJECT,candle,5,nonswitch,1,2668,Younger,Dual,1
24,candle,OBJECT,candle,5,nonswitch,1,2397.2,Younger,Dual,1
25,candle,OBJECT,candle,5,nonswitch,1,1867.5,Older,Dual,1
26,suitcase,OBJECT,suitcase,5,nonswitch,1,1236.7,Younger,Dual,1
27,suitcase,OBJECT,suitcase,5,nonswitch,1,2045.3,Older,Dual,1
28,candle,OBJECT,candle,5,nonswitch,1,1416.1,Older,Dual,1
29,suitcase,OBJECT,suitcase,5,nonswitch,1,1089.5,Older,Dual,1
30,suitcase,OBJECT,suitcase,5,nonswitch,1,2173.4,Older,Dual,1
32,suitcase,OBJECT,suitcase,5,nonswitch,1,923,Younger,Dual,1
33,suitcase,OBJECT,suitcase,5,nonswitch,1,1366.3,Older,Dual,1
34,suitcase,OBJECT,suitcase,5,nonswitch,1,2082.8,Older,Dual,1
36,suitcase,OBJECT,suitcase,5,nonswitch,1,1342,Older,Dual,1
37,candle,OBJECT,candle,5,nonswitch,1,1442,Older,Dual,1
38,candle,OBJECT,candle,5,nonswitch,1,863.7,Older,Dual,1
39,candle,OBJECT,candle,5,nonswitch,1,945.9,Younger,Dual,1
40,suitcase,OBJECT,suitcase,5,nonswitch,1,1173.4,Older,Dual,1
41,candle,OBJECT,candle,5,nonswitch,1,889.8,Older,Dual,1
43,suitcase,OBJECT,suitcase,5,nonswitch,1,1122.9,Younger,Dual,1
44,suitcase,OBJECT,suitcase,5,nonswitch,1,1135.8,Older,Dual,1
45,suitcase,OBJECT,suitcase,5,nonswitch,1,1418,Younger,Dual,1
46,candle,OBJECT,candle,5,nonswitch,1,1121.9,Older,Dual,1
48,candle,OBJECT,candle,5,nonswitch,1,1577,Older,Dual,1
50,candle,OBJECT,candle,5,nonswitch,1,1606,Older,Dual,1
51,candle,OBJECT,candle,5,nonswitch,1,1013.2,Older,Dual,1
52,candle,OBJECT,candle,5,nonswitch,1,1925.8,Older,Dual,1
53,candle,OBJECT,candle,5,nonswitch,1,1037,Younger,Dual,1
55,candle,OBJECT,candle,5,nonswitch,1,1252.5,Younger,Dual,1
56,candle,OBJECT,candle,5,nonswitch,1,1160.5,Younger,Dual,1
57,suitcase,OBJECT,suitcase,5,nonswitch,1,934.9,Younger,Dual,1
58,candle,OBJECT,candle,5,nonswitch,1,1531.1,Younger,Dual,1
