participant,Language,SpecificLanguage,Response,Trial,Trialtype,accuracy,rt,Agegroup,Item,Context,accuracy01
1,L2,French,cadeau,67,nonswitch,0,X,Younger,present,Dual,0
1,L2,French,couteau,2,nonswitch,1,1741.1,Younger,knife,Dual,1
1,L1,English,coat,3,switch,1,1432.2,Younger,coat,Dual,1
1,L1,English,trophy,4,nonswitch,1,1210.3,Younger,trophy,Dual,1
1,L1,English,candle,5,nonswitch,1,1595,Younger,candle,Dual,1
1,L2,French,jouet,6,switch,1,1062.6,Younger,toy,Dual,1
1,L2,French,avion,7,nonswitch,1,916,Younger,plane,Dual,1
1,L1,English,knife,8,switch,1,1177.4,Younger,knife,Dual,1
1,L2,French,tasse,9,switch,1,1064.3,Younger,cup,Dual,1
1,L2,French,gateau,10,nonswitch,1,1737,Younger,cake,Dual,1
1,L1,English,teeth,11,switch,1,1276,Younger,teeth,Dual,1
1,L2,French,échelle,12,switch,1,1418,Younger,ladder,Dual,1
1,L2,French,journal,13,nonswitch,1,993.7,Younger,newspaper,Dual,1
1,L1,English,candle,14,switch,1,1208.8,Younger,candle,Dual,1
1,L2,French,dents,17,nonswitch,1,978.1,Younger,teeth,Dual,1
1,L2,French,stylo,18,nonswitch,1,957.4,Younger,pen,Dual,1
1,L1,English,cup,19,switch,1,1392.2,Younger,cup,Dual,1
1,L2,French,cerveau,22,switch,1,964.7,Younger,brain,Dual,1
1,L1,English,suitcase,23,switch,1,1983.4,Younger,suitcase,Dual,1
1,L1,English,teeth,24,nonswitch,1,1080.7,Younger,teeth,Dual,1
1,L1,English,cup,25,nonswitch,1,1092.5,Younger,cup,Dual,1
1,L1,English,strawberry,26,nonswitch,1,961.1,Younger,strawberry,Dual,1
1,L2,French,stylo,27,switch,1,841.4,Younger,pen,Dual,1
1,L2,French,savon,28,nonswitch,1,1019.1,Younger,soap,Dual,1
1,L1,English,ladder,29,switch,1,1030.5,Younger,ladder,Dual,1
1,L1,English,soap,30,nonswitch,1,1153.3,Younger,soap,Dual,1
1,L2,French,fraise,31,switch,1,1229.4,Younger,strawberry,Dual,1
1,L2,French,tasse,32,nonswitch,1,1017.6,Younger,cup,Dual,1
1,L1,English,pen,33,switch,1,1180,Younger,pen,Dual,1
1,L2,French,valise,34,switch,1,1562.6,Younger,suitcase,Dual,1
1,L1,English,soap,35,switch,1,1091.6,Younger,soap,Dual,1
1,L1,English,horse,36,nonswitch,1,1226.3,Younger,horse,Dual,1
1,L1,English,toy,37,nonswitch,1,1214.8,Younger,toy,Dual,1
1,L2,French,balai,38,switch,1,2635,Younger,broom,Dual,1
1,L2,French,cheval,39,nonswitch,1,1345.5,Younger,horse,Dual,1
1,L2,French,couteau,40,nonswitch,1,1387.5,Younger,knife,Dual,1
1,L1,English,coat,42,nonswitch,1,1096.5,Younger,coat,Dual,1
1,L2,French,cheval,43,switch,1,1044.5,Younger,horse,Dual,1
1,L1,English,plane,44,switch,1,1629.1,Younger,plane,Dual,1
1,L1,English,eye,45,nonswitch,1,1217.1,Younger,eye,Dual,1
1,L1,English,pen,46,nonswitch,1,1300.5,Younger,pen,Dual,1
1,L2,French,savon,47,switch,1,1033.6,Younger,soap,Dual,1
1,L2,French,bougie,48,nonswitch,1,1036.1,Younger,candle,Dual,1
1,L1,English,horse,49,switch,1,987.4,Younger,horse,Dual,1
1,L2,French,cadeau,50,switch,1,1793.3,Younger,present,Dual,1
1,L2,French,coupe,51,nonswitch,1,1633.6,Younger,trophy,Dual,1
1,L1,English,strawberry,52,switch,1,1294.7,Younger,strawberry,Dual,1
1,L1,English,plane,53,nonswitch,1,1286.5,Younger,plane,Dual,1
1,L1,English,newspaper,54,nonswitch,1,1441.4,Younger,newspaper,Dual,1
1,L2,French,bougie,55,switch,1,1089.2,Younger,candle,Dual,1
1,L2,French,fraise,56,nonswitch,1,1435.4,Younger,strawberry,Dual,1
1,L1,English,present,57,switch,1,1331.6,Younger,present,Dual,1
1,L2,French,avion,58,switch,1,930.6,Younger,plane,Dual,1
1,L1,English,brain,59,switch,1,1276.6,Younger,brain,Dual,1
1,L1,English,ladder,60,nonswitch,1,1072.2,Younger,ladder,Dual,1
1,L2,French,manteau,61,switch,1,1160.4,Younger,coat,Dual,1
1,L2,French,oeil,62,nonswitch,1,1506.5,Younger,eye,Dual,1
1,L2,French,balai,63,nonswitch,1,1613.6,Younger,broom,Dual,1
1,L2,French,cerveau,64,nonswitch,1,1131.5,Younger,brain,Dual,1
1,L1,English,toy,65,switch,1,1354.2,Younger,toy,Dual,1
1,L2,French,dents,66,switch,1,985.8,Younger,teeth,Dual,1
1,L1,English,broom,69,switch,1,1504.9,Younger,broom,Dual,1
1,L1,English,present,70,nonswitch,1,1242.7,Younger,present,Dual,1
1,L2,French,coupe,71,switch,1,1254.8,Younger,trophy,Dual,1
1,L1,English,newspaper,72,switch,1,1098.9,Younger,newspaper,Dual,1
1,L1,English,suitcase,73,nonswitch,1,1238.7,Younger,suitcase,Dual,1
1,L2,French,couteau,74,switch,1,1388.6,Younger,knife,Dual,1
1,L2,French,manteau,75,nonswitch,1,1426.2,Younger,coat,Dual,1
1,L1,English,eye,76,switch,1,1149.7,Younger,eye,Dual,1
1,L1,English,broom,77,nonswitch,1,1041.4,Younger,broom,Dual,1
1,L2,French,journal,78,switch,1,1090.7,Younger,newspaper,Dual,1
1,L2,French,échelle,79,nonswitch,1,1370.9,Younger,ladder,Dual,1
1,L1,English,trophy,80,switch,1,1236,Younger,trophy,Dual,1
1,L2,French,journal,82,nonswitch,1,932.1,Younger,newspaper,Dual,1
1,L1,English,suitcase,83,switch,1,1330.6,Younger,suitcase,Dual,1
1,L1,English,coat,84,nonswitch,1,1536.2,Younger,coat,Dual,1
1,L1,English,cup,85,nonswitch,1,1537.3,Younger,cup,Dual,1
1,L2,French,stylo,86,switch,1,868,Younger,pen,Dual,1
1,L2,French,savon,87,nonswitch,1,656.4,Younger,soap,Dual,1
1,L1,English,broom,88,switch,1,827.9,Younger,broom,Dual,1
1,L2,French,dents,89,switch,1,977.2,Younger,teeth,Dual,1
1,L2,French,manteau,90,nonswitch,1,1254,Younger,coat,Dual,1
1,L1,English,pen,91,switch,1,1260.3,Younger,pen,Dual,1
1,L2,French,tasse,92,switch,1,1343.8,Younger,cup,Dual,1
1,L2,French,jouet,93,nonswitch,1,1412.3,Younger,toy,Dual,1
1,L1,English,brain,94,switch,1,1066.3,Younger,brain,Dual,1
1,L1,English,teeth,95,nonswitch,1,1168.4,Younger,teeth,Dual,1
1,L2,French,coupe,96,switch,1,1304.4,Younger,trophy,Dual,1
1,L2,French,valise,97,nonswitch,1,1247.6,Younger,suitcase,Dual,1
1,L2,French,cheval,98,nonswitch,1,1029.7,Younger,horse,Dual,1
1,L1,English,strawberry,101,nonswitch,1,993.7,Younger,strawberry,Dual,1
1,L2,French,échelle,102,switch,1,1145.8,Younger,ladder,Dual,1
1,L1,English,coat,103,switch,1,1193.2,Younger,coat,Dual,1
1,L1,English,plane,104,nonswitch,1,1088.5,Younger,plane,Dual,1
1,L1,English,eye,105,nonswitch,1,1609.1,Younger,eye,Dual,1
1,L1,English,candle,106,nonswitch,1,1240.3,Younger,candle,Dual,1
1,L2,French,manteau,107,switch,1,1211.1,Younger,coat,Dual,1
1,L2,French,valise,108,nonswitch,1,1488.4,Younger,suitcase,Dual,1
1,L1,English,trophy,109,switch,1,1840.3,Younger,trophy,Dual,1
1,L1,English,newspaper,110,nonswitch,1,2353.7,Younger,newspaper,Dual,1
1,L2,French,cadeau,111,switch,1,2301.2,Younger,present,Dual,1
1,L2,French,coupe,112,nonswitch,1,1301.9,Younger,trophy,Dual,1
1,L1,English,knife,113,switch,1,1141.9,Younger,knife,Dual,1
1,L2,French,journal,114,switch,1,934,Younger,newspaper,Dual,1
1,L1,English,ladder,115,switch,1,886.2,Younger,ladder,Dual,1
1,L1,English,brain,116,nonswitch,1,1221.5,Younger,brain,Dual,1
1,L1,English,cake,117,nonswitch,1,1113.8,Younger,cake,Dual,1
1,L2,French,valise,118,switch,1,1184,Younger,suitcase,Dual,1
1,L2,French,balai,119,nonswitch,1,1339.4,Younger,broom,Dual,1
1,L2,French,gateau,120,nonswitch,1,1329.8,Younger,cake,Dual,1
1,L1,English,broom,122,nonswitch,1,738.3,Younger,broom,Dual,1
1,L2,French,fraise,123,switch,1,1280.2,Younger,strawberry,Dual,1
1,L1,English,cup,124,switch,1,1446.9,Younger,cup,Dual,1
1,L1,English,pen,125,nonswitch,1,1000.4,Younger,pen,Dual,1
1,L1,English,toy,126,nonswitch,1,1664.4,Younger,toy,Dual,1
1,L2,French,savon,127,switch,1,1019.1,Younger,soap,Dual,1
1,L2,French,fraise,128,nonswitch,1,1026.3,Younger,strawberry,Dual,1
1,L1,English,toy,129,switch,1,1171.4,Younger,toy,Dual,1
1,L2,French,avion,130,switch,1,1120.6,Younger,plane,Dual,1
1,L2,French,jouet,131,nonswitch,1,1700.9,Younger,toy,Dual,1
1,L1,English,soap,132,switch,1,1177.1,Younger,soap,Dual,1
1,L1,English,knife,133,nonswitch,1,1133.1,Younger,knife,Dual,1
1,L1,English,trophy,134,nonswitch,1,1193.7,Younger,trophy,Dual,1
1,L2,French,gateau,135,switch,1,1093.7,Younger,cake,Dual,1
1,L2,French,cadeau,136,nonswitch,1,1283.6,Younger,present,Dual,1
1,L1,English,teeth,137,switch,1,1178.7,Younger,teeth,Dual,1
1,L2,French,cheval,138,switch,1,1338.2,Younger,horse,Dual,1
1,L1,English,newspaper,139,switch,1,1445.9,Younger,newspaper,Dual,1
1,L1,English,horse,140,nonswitch,1,1181.8,Younger,horse,Dual,1
1,L2,French,couteau,141,switch,1,1864.4,Younger,knife,Dual,1
1,L2,French,échelle,142,nonswitch,1,1285.7,Younger,ladder,Dual,1
1,L2,French,stylo,143,nonswitch,1,808.7,Younger,pen,Dual,1
1,L2,French,tasse,144,nonswitch,1,1116.8,Younger,cup,Dual,1
1,L1,English,strawberry,145,switch,1,1120.6,Younger,strawberry,Dual,1
1,L2,French,cerveau,146,switch,1,1584.8,Younger,brain,Dual,1
1,L2,French,avion,147,nonswitch,1,904.5,Younger,plane,Dual,1
1,L2,French,bougie,148,nonswitch,1,990.2,Younger,candle,Dual,1
1,L1,English,horse,149,switch,1,1104.6,Younger,horse,Dual,1
1,L1,English,soap,150,nonswitch,1,1025.2,Younger,soap,Dual,1
1,L2,French,bougie,151,switch,1,991.6,Younger,candle,Dual,1
1,L1,English,cake,152,switch,1,1203.8,Younger,cake,Dual,1
1,L1,English,suitcase,153,nonswitch,1,1472.9,Younger,suitcase,Dual,1
1,L2,French,jouet,154,switch,1,1494.2,Younger,toy,Dual,1
1,L2,French,oeil,155,nonswitch,1,1358.7,Younger,eye,Dual,1
1,L1,English,plane,156,switch,1,1136.1,Younger,plane,Dual,1
1,L1,English,present,157,nonswitch,1,1323.3,Younger,present,Dual,1
1,L2,French,balai,158,switch,1,1647.6,Younger,broom,Dual,1
1,L2,French,dents,159,nonswitch,1,986.2,Younger,teeth,Dual,1
1,L1,English,eye,160,switch,1,1224.7,Younger,eye,Dual,1
1,L1,English,broom,1,SingleNaming,1,765.3,Younger,broom,Single,1
1,L2,French,dents,1,SingleNaming,1,831.6,Younger,teeth,Single,1
1,L1,English,candle,2,SingleNaming,1,783.5,Younger,candle,Single,1
1,L2,French,fraise,2,SingleNaming,1,852.3,Younger,strawberry,Single,1
1,L1,English,suitcase,3,SingleNaming,1,747.1,Younger,suitcase,Single,1
1,L2,French,tasse,3,SingleNaming,1,784.3,Younger,cup,Single,1
1,L1,English,horse,4,SingleNaming,1,932.1,Younger,horse,Single,1
1,L2,French,balai,4,SingleNaming,1,1107.2,Younger,broom,Single,1
1,L1,English,soap,5,SingleNaming,1,743.5,Younger,soap,Single,1
1,L2,French,oeil,5,SingleNaming,1,980.8,Younger,eye,Single,1
1,L1,English,pen,6,SingleNaming,1,1017.4,Younger,pen,Single,1
1,L2,French,cadeau,6,SingleNaming,1,1867.2,Younger,present,Single,1
1,L1,English,newspaper,7,SingleNaming,1,904.3,Younger,newspaper,Single,1
1,L2,French,valise,7,SingleNaming,1,1457.5,Younger,suitcase,Single,1
1,L1,English,cup,8,SingleNaming,1,768.1,Younger,cup,Single,1
1,L2,French,bougie,8,SingleNaming,1,884.5,Younger,candle,Single,1
1,L2,French,stylo,9,SingleNaming,1,741.6,Younger,pen,Single,1
1,L1,English,knife,9,SingleNaming,1,769.7,Younger,knife,Single,1
1,L2,French,jouet,10,SingleNaming,1,577.6,Younger,toy,Single,1
1,L1,English,coat,10,SingleNaming,1,1078.6,Younger,coat,Single,1
1,L2,French,cheval,11,SingleNaming,1,889.3,Younger,horse,Single,1
1,L1,English,strawberry,11,SingleNaming,1,1095.3,Younger,strawberry,Single,1
1,L1,English,trophy,12,SingleNaming,1,1068.1,Younger,trophy,Single,1
1,L2,French,manteau,12,SingleNaming,1,1233.1,Younger,coat,Single,1
1,L2,French,avion,13,SingleNaming,1,884.9,Younger,plane,Single,1
1,L1,English,eye,13,SingleNaming,1,1000.8,Younger,eye,Single,1
1,L1,English,cake,14,SingleNaming,1,805.6,Younger,cake,Single,1
1,L2,French,gateau,14,SingleNaming,1,1484.1,Younger,cake,Single,1
1,L1,English,teeth,15,SingleNaming,1,757.7,Younger,teeth,Single,1
1,L2,French,échelle,15,SingleNaming,1,1065.7,Younger,ladder,Single,1
1,L1,English,present,16,SingleNaming,1,677,Younger,present,Single,1
1,L2,French,couteau,16,SingleNaming,1,1586.6,Younger,knife,Single,1
1,L1,English,brain,17,SingleNaming,1,707.7,Younger,brain,Single,1
1,L2,French,savon,17,SingleNaming,1,895.1,Younger,soap,Single,1
1,L1,English,toy,18,SingleNaming,1,755.4,Younger,toy,Single,1
1,L2,French,journal,18,SingleNaming,1,840.5,Younger,newspaper,Single,1
1,L1,English,ladder,19,SingleNaming,1,891.9,Younger,ladder,Single,1
1,L2,French,cerveau,19,SingleNaming,1,1035.7,Younger,brain,Single,1
1,L1,English,plane,20,SingleNaming,1,1189.5,Younger,plane,Single,1
1,L1,English,teeth,21,SingleNaming,1,995.6,Younger,teeth,Single,1
1,L2,French,couteau,21,SingleNaming,1,1295.3,Younger,knife,Single,1
1,L1,English,coat,22,SingleNaming,1,608.2,Younger,coat,Single,1
1,L2,French,fraise,22,SingleNaming,1,1019.1,Younger,strawberry,Single,1
1,L1,English,cake,23,SingleNaming,1,634.7,Younger,cake,Single,1
1,L2,French,tasse,23,SingleNaming,1,1310.5,Younger,cup,Single,1
1,L1,English,toy,24,SingleNaming,1,915.8,Younger,toy,Single,1
1,L2,French,cerveau,24,SingleNaming,1,953.8,Younger,brain,Single,1
1,L1,English,strawberry,25,SingleNaming,1,615.5,Younger,strawberry,Single,1
1,L2,French,oeil,25,SingleNaming,1,1076.4,Younger,eye,Single,1
1,L1,English,plane,26,SingleNaming,1,864.1,Younger,plane,Single,1
1,L2,French,échelle,26,SingleNaming,1,1207.5,Younger,ladder,Single,1
1,L1,English,knife,27,SingleNaming,1,796.8,Younger,knife,Single,1
1,L2,French,valise,27,SingleNaming,1,1723.8,Younger,suitcase,Single,1
1,L1,English,suitcase,28,SingleNaming,1,779.7,Younger,suitcase,Single,1
1,L2,French,dents,28,SingleNaming,1,1096.7,Younger,teeth,Single,1
1,L2,French,stylo,29,SingleNaming,1,721.7,Younger,pen,Single,1
1,L1,English,trophy,29,SingleNaming,1,1103.4,Younger,trophy,Single,1
1,L1,English,ladder,30,SingleNaming,1,746.1,Younger,ladder,Single,1
1,L2,French,jouet,30,SingleNaming,1,886.1,Younger,toy,Single,1
1,L1,English,eye,31,SingleNaming,1,1016.2,Younger,eye,Single,1
1,L2,French,cheval,31,SingleNaming,1,1121.3,Younger,horse,Single,1
1,L1,English,newspaper,32,SingleNaming,1,868.7,Younger,newspaper,Single,1
1,L2,French,manteau,32,SingleNaming,1,1026.3,Younger,coat,Single,1
1,L2,French,avion,33,SingleNaming,1,1001,Younger,plane,Single,1
1,L1,English,candle,33,SingleNaming,1,1044.5,Younger,candle,Single,1
1,L1,English,present,34,SingleNaming,1,1196.9,Younger,present,Single,1
1,L2,French,gateau,34,SingleNaming,1,1494.9,Younger,cake,Single,1
1,L1,English,horse,35,SingleNaming,1,779.7,Younger,horse,Single,1
1,L2,French,bougie,35,SingleNaming,1,1018.5,Younger,candle,Single,1
1,L1,English,brain,36,SingleNaming,1,991.9,Younger,brain,Single,1
1,L2,French,balai,36,SingleNaming,1,2542.4,Younger,broom,Single,1
1,L1,English,cup,37,SingleNaming,1,975.6,Younger,cup,Single,1
1,L2,French,savon,37,SingleNaming,1,1153.3,Younger,soap,Single,1
1,L1,English,pen,38,SingleNaming,1,753.3,Younger,pen,Single,1
1,L2,French,journal,38,SingleNaming,1,917.5,Younger,newspaper,Single,1
1,L1,English,soap,39,SingleNaming,1,743.3,Younger,soap,Single,1
1,L2,French,cadeau,39,SingleNaming,1,1843.1,Younger,present,Single,1
1,L1,English,broom,40,SingleNaming,1,873.6,Younger,broom,Single,1
1,L2,French,coupe,40,SingleNaming,1,2063,Younger,trophy,Single,1
1,L1,English,brain,15,nonswitch,3,1185.9,Younger,brain,Dual,0
1,L1,English,knife,20,nonswitch,3,1920.1,Younger,knife,Dual,0
1,L1,English,present,99,switch,3,2618.3,Younger,present,Dual,0
1,L2,French,coupe,20,SingleNaming,3,740.5,Younger,trophy,Single,0
1,L2,French,oeil,1,X,7,1423.2,Younger,eye,Dual,1
1,L2,French,gateau,16,switch,7,1425,Younger,cake,Dual,1
1,L1,English,cake,21,nonswitch,7,1106.1,Younger,cake,Dual,1
1,L1,English,cake,41,X,7,1154.5,Younger,cake,Dual,1
1,L2,French,cerveau,68,nonswitch,7,2065.3,Younger,brain,Dual,1
1,L2,French,oeil,81,X,7,1225.8,Younger,eye,Dual,1
1,L1,English,ladder,100,nonswitch,7,1424,Younger,ladder,Dual,1
1,L1,English,candle,121,X,7,1090.5,Younger,candle,Dual,1
2,L2,French,valise,34,switch,0,X,Younger,suitcase,Dual,0
2,L2,French,cadeau,50,switch,0,X,Younger,present,Dual,0
2,L2,French,valise,7,SingleNaming,0,X,Younger,suitcase,Single,0
2,L2,French,tasse,23,SingleNaming,0,X,Younger,cup,Single,0
2,L2,French,couteau,2,nonswitch,1,2072.4,Younger,knife,Dual,1
2,L1,English,coat,3,switch,1,1018.5,Younger,coat,Dual,1
2,L1,English,trophy,4,nonswitch,1,1024.2,Younger,trophy,Dual,1
2,L1,English,candle,5,nonswitch,1,927.1,Younger,candle,Dual,1
2,L2,French,jouet,6,switch,1,2039,Younger,toy,Dual,1
2,L2,French,avion,7,nonswitch,1,1048.3,Younger,plane,Dual,1
2,L1,English,knife,8,switch,1,1075.5,Younger,knife,Dual,1
2,L2,French,tasse,9,switch,1,1889.4,Younger,cup,Dual,1
2,L2,French,gateau,10,nonswitch,1,1196.7,Younger,cake,Dual,1
2,L1,English,teeth,11,switch,1,1287.8,Younger,teeth,Dual,1
2,L2,French,échelle,12,switch,1,1875,Younger,ladder,Dual,1
2,L2,French,journal,13,nonswitch,1,1435.3,Younger,newspaper,Dual,1
2,L1,English,candle,14,switch,1,850.7,Younger,candle,Dual,1
2,L1,English,brain,15,nonswitch,1,1462.1,Younger,brain,Dual,1
2,L2,French,gateau,16,switch,1,1493.8,Younger,cake,Dual,1
2,L2,French,dents,17,nonswitch,1,1794.8,Younger,teeth,Dual,1
2,L2,French,stylo,18,nonswitch,1,1234,Younger,pen,Dual,1
2,L1,English,cup,19,switch,1,1017.7,Younger,cup,Dual,1
2,L1,English,knife,20,nonswitch,1,1292.1,Younger,knife,Dual,1
2,L1,English,cake,21,nonswitch,1,1023.7,Younger,cake,Dual,1
2,L2,French,cerveau,22,switch,1,2368.2,Younger,brain,Dual,1
2,L1,English,suitcase,23,switch,1,984,Younger,suitcase,Dual,1
2,L1,English,teeth,24,nonswitch,1,829.1,Younger,teeth,Dual,1
2,L1,English,cup,25,nonswitch,1,1015.3,Younger,cup,Dual,1
2,L1,English,strawberry,26,nonswitch,1,682,Younger,strawberry,Dual,1
2,L2,French,stylo,27,switch,1,885.8,Younger,pen,Dual,1
2,L2,French,savon,28,nonswitch,1,1706.3,Younger,soap,Dual,1
2,L1,English,ladder,29,switch,1,996.9,Younger,ladder,Dual,1
2,L1,English,soap,30,nonswitch,1,964.5,Younger,soap,Dual,1
2,L2,French,fraise,31,switch,1,1580.5,Younger,strawberry,Dual,1
2,L2,French,tasse,32,nonswitch,1,2785,Younger,cup,Dual,1
2,L1,English,pen,33,switch,1,1317.3,Younger,pen,Dual,1
2,L1,English,horse,36,nonswitch,1,806.7,Younger,horse,Dual,1
2,L1,English,toy,37,nonswitch,1,856.9,Younger,toy,Dual,1
2,L2,French,balai,38,switch,1,2364.6,Younger,broom,Dual,1
2,L2,French,cheval,39,nonswitch,1,1016.2,Younger,horse,Dual,1
2,L2,French,couteau,40,nonswitch,1,2766,Younger,knife,Dual,1
2,L1,English,coat,42,nonswitch,1,817.8,Younger,coat,Dual,1
2,L2,French,cheval,43,switch,1,801.6,Younger,horse,Dual,1
2,L1,English,pen,46,nonswitch,1,1455.7,Younger,pen,Dual,1
2,L2,French,savon,47,switch,1,2779.3,Younger,soap,Dual,1
2,L2,French,bougie,48,nonswitch,1,2250.2,Younger,candle,Dual,1
2,L1,English,horse,49,switch,1,1067.3,Younger,horse,Dual,1
2,L1,English,strawberry,52,switch,1,1196.2,Younger,strawberry,Dual,1
2,L1,English,plane,53,nonswitch,1,839.3,Younger,plane,Dual,1
2,L1,English,newspaper,54,nonswitch,1,1147.2,Younger,newspaper,Dual,1
2,L2,French,bougie,55,switch,1,2551.9,Younger,candle,Dual,1
2,L2,French,fraise,56,nonswitch,1,1112.4,Younger,strawberry,Dual,1
2,L1,English,present,57,switch,1,1010.6,Younger,present,Dual,1
2,L2,French,avion,58,switch,1,880.9,Younger,plane,Dual,1
2,L1,English,brain,59,switch,1,844.3,Younger,brain,Dual,1
2,L1,English,ladder,60,nonswitch,1,608.7,Younger,ladder,Dual,1
2,L2,French,manteau,61,switch,1,1374.9,Younger,coat,Dual,1
2,L2,French,oeil,62,nonswitch,1,1398.4,Younger,eye,Dual,1
2,L2,French,balai,63,nonswitch,1,2063.2,Younger,broom,Dual,1
2,L2,French,cerveau,64,nonswitch,1,1632.5,Younger,brain,Dual,1
2,L1,English,toy,65,switch,1,931.7,Younger,toy,Dual,1
2,L2,French,dents,66,switch,1,2079.1,Younger,teeth,Dual,1
2,L2,French,cadeau,67,nonswitch,1,2295.1,Younger,present,Dual,1
2,L2,French,cerveau,68,nonswitch,1,2720.9,Younger,brain,Dual,1
2,L1,English,broom,69,switch,1,1162,Younger,broom,Dual,1
2,L1,English,present,70,nonswitch,1,803.3,Younger,present,Dual,1
2,L2,French,coupe,71,switch,1,1104.6,Younger,trophy,Dual,1
2,L1,English,newspaper,72,switch,1,697.3,Younger,newspaper,Dual,1
2,L1,English,suitcase,73,nonswitch,1,816,Younger,suitcase,Dual,1
2,L2,French,couteau,74,switch,1,2610.5,Younger,knife,Dual,1
2,L2,French,manteau,75,nonswitch,1,1366.4,Younger,coat,Dual,1
2,L1,English,eye,76,switch,1,1024.3,Younger,eye,Dual,1
2,L1,English,broom,77,nonswitch,1,1065.6,Younger,broom,Dual,1
2,L2,French,journal,78,switch,1,1759.8,Younger,newspaper,Dual,1
2,L2,French,échelle,79,nonswitch,1,1253.7,Younger,ladder,Dual,1
2,L1,English,trophy,80,switch,1,875.8,Younger,trophy,Dual,1
2,L2,French,journal,82,nonswitch,1,694.6,Younger,newspaper,Dual,1
2,L1,English,suitcase,83,switch,1,786.7,Younger,suitcase,Dual,1
2,L1,English,coat,84,nonswitch,1,949.5,Younger,coat,Dual,1
2,L1,English,cup,85,nonswitch,1,928.5,Younger,cup,Dual,1
2,L2,French,stylo,86,switch,1,1180.5,Younger,pen,Dual,1
2,L2,French,savon,87,nonswitch,1,1728.7,Younger,soap,Dual,1
2,L1,English,broom,88,switch,1,944.2,Younger,broom,Dual,1
2,L2,French,dents,89,switch,1,882.7,Younger,teeth,Dual,1
2,L2,French,manteau,90,nonswitch,1,1117.4,Younger,coat,Dual,1
2,L1,English,pen,91,switch,1,1084.1,Younger,pen,Dual,1
2,L2,French,tasse,92,switch,1,2246.4,Younger,cup,Dual,1
2,L2,French,jouet,93,nonswitch,1,1215,Younger,toy,Dual,1
2,L1,English,brain,94,switch,1,1202.2,Younger,brain,Dual,1
2,L1,English,teeth,95,nonswitch,1,1014.5,Younger,teeth,Dual,1
2,L2,French,coupe,96,switch,1,1148.1,Younger,trophy,Dual,1
2,L2,French,valise,97,nonswitch,1,2438.2,Younger,suitcase,Dual,1
2,L2,French,cheval,98,nonswitch,1,812,Younger,horse,Dual,1
2,L1,English,present,99,switch,1,1058.6,Younger,present,Dual,1
2,L1,English,ladder,100,nonswitch,1,800.2,Younger,ladder,Dual,1
2,L1,English,strawberry,101,nonswitch,1,765.9,Younger,strawberry,Dual,1
2,L2,French,échelle,102,switch,1,1055.1,Younger,ladder,Dual,1
2,L1,English,coat,103,switch,1,1082.2,Younger,coat,Dual,1
2,L1,English,plane,104,nonswitch,1,677.8,Younger,plane,Dual,1
2,L1,English,eye,105,nonswitch,1,830.5,Younger,eye,Dual,1
2,L1,English,candle,106,nonswitch,1,680.6,Younger,candle,Dual,1
2,L2,French,manteau,107,switch,1,1719,Younger,coat,Dual,1
2,L1,English,newspaper,110,nonswitch,1,1192.2,Younger,newspaper,Dual,1
2,L2,French,cadeau,111,switch,1,2515.3,Younger,present,Dual,1
2,L2,French,coupe,112,nonswitch,1,1122.6,Younger,trophy,Dual,1
2,L1,English,knife,113,switch,1,1148.6,Younger,knife,Dual,1
2,L2,French,journal,114,switch,1,918.6,Younger,newspaper,Dual,1
2,L1,English,ladder,115,switch,1,652.2,Younger,ladder,Dual,1
2,L1,English,brain,116,nonswitch,1,1011.3,Younger,brain,Dual,1
2,L1,English,cake,117,nonswitch,1,987.8,Younger,cake,Dual,1
2,L2,French,valise,118,switch,1,1009.9,Younger,suitcase,Dual,1
2,L2,French,balai,119,nonswitch,1,2398.5,Younger,broom,Dual,1
2,L2,French,gateau,120,nonswitch,1,1094.6,Younger,cake,Dual,1
2,L1,English,broom,122,nonswitch,1,739.5,Younger,broom,Dual,1
2,L2,French,fraise,123,switch,1,902.4,Younger,strawberry,Dual,1
2,L1,English,cup,124,switch,1,968.7,Younger,cup,Dual,1
2,L1,English,pen,125,nonswitch,1,1268,Younger,pen,Dual,1
2,L1,English,toy,126,nonswitch,1,1273.1,Younger,toy,Dual,1
2,L2,French,savon,127,switch,1,2241.2,Younger,soap,Dual,1
2,L2,French,fraise,128,nonswitch,1,777.3,Younger,strawberry,Dual,1
2,L1,English,toy,129,switch,1,721.2,Younger,toy,Dual,1
2,L2,French,avion,130,switch,1,887.7,Younger,plane,Dual,1
2,L2,French,jouet,131,nonswitch,1,978.4,Younger,toy,Dual,1
2,L1,English,soap,132,switch,1,1014.5,Younger,soap,Dual,1
2,L1,English,knife,133,nonswitch,1,806.2,Younger,knife,Dual,1
2,L1,English,trophy,134,nonswitch,1,781.2,Younger,trophy,Dual,1
2,L2,French,gateau,135,switch,1,919.1,Younger,cake,Dual,1
2,L2,French,cadeau,136,nonswitch,1,2463.1,Younger,present,Dual,1
2,L1,English,teeth,137,switch,1,1133.8,Younger,teeth,Dual,1
2,L2,French,cheval,138,switch,1,735.1,Younger,horse,Dual,1
2,L1,English,newspaper,139,switch,1,869.6,Younger,newspaper,Dual,1
2,L1,English,horse,140,nonswitch,1,876.4,Younger,horse,Dual,1
2,L2,French,couteau,141,switch,1,2592.9,Younger,knife,Dual,1
2,L2,French,échelle,142,nonswitch,1,1112.2,Younger,ladder,Dual,1
2,L2,French,stylo,143,nonswitch,1,905.6,Younger,pen,Dual,1
2,L2,French,tasse,144,nonswitch,1,2348,Younger,cup,Dual,1
2,L1,English,strawberry,145,switch,1,905.2,Younger,strawberry,Dual,1
2,L2,French,cerveau,146,switch,1,1704.5,Younger,brain,Dual,1
2,L2,French,avion,147,nonswitch,1,903.2,Younger,plane,Dual,1
2,L2,French,bougie,148,nonswitch,1,2036.4,Younger,candle,Dual,1
2,L1,English,horse,149,switch,1,935,Younger,horse,Dual,1
2,L1,English,soap,150,nonswitch,1,871.8,Younger,soap,Dual,1
2,L2,French,bougie,151,switch,1,1275.6,Younger,candle,Dual,1
2,L1,English,cake,152,switch,1,1480.8,Younger,cake,Dual,1
2,L1,English,suitcase,153,nonswitch,1,885.5,Younger,suitcase,Dual,1
2,L2,French,jouet,154,switch,1,900.3,Younger,toy,Dual,1
2,L2,French,oeil,155,nonswitch,1,1379.3,Younger,eye,Dual,1
2,L1,English,plane,156,switch,1,987.1,Younger,plane,Dual,1
2,L1,English,present,157,nonswitch,1,813.9,Younger,present,Dual,1
2,L2,French,balai,158,switch,1,1983.1,Younger,broom,Dual,1
2,L2,French,dents,159,nonswitch,1,1092.7,Younger,teeth,Dual,1
2,L1,English,eye,160,switch,1,975.4,Younger,eye,Dual,1
2,L1,English,broom,1,SingleNaming,1,965.2,Younger,broom,Single,1
2,L2,French,dents,1,SingleNaming,1,1105.6,Younger,teeth,Single,1
2,L1,English,candle,2,SingleNaming,1,632.1,Younger,candle,Single,1
2,L2,French,fraise,2,SingleNaming,1,1043.6,Younger,strawberry,Single,1
2,L1,English,suitcase,3,SingleNaming,1,797.2,Younger,suitcase,Single,1
2,L2,French,tasse,3,SingleNaming,1,2342.8,Younger,cup,Single,1
2,L1,English,horse,4,SingleNaming,1,555.7,Younger,horse,Single,1
2,L2,French,balai,4,SingleNaming,1,2055,Younger,broom,Single,1
2,L1,English,soap,5,SingleNaming,1,785.4,Younger,soap,Single,1
2,L2,French,oeil,5,SingleNaming,1,1128.8,Younger,eye,Single,1
2,L1,English,pen,6,SingleNaming,1,748.6,Younger,pen,Single,1
2,L2,French,cadeau,6,SingleNaming,1,1992.4,Younger,present,Single,1
2,L1,English,newspaper,7,SingleNaming,1,714.3,Younger,newspaper,Single,1
2,L1,English,cup,8,SingleNaming,1,669.9,Younger,cup,Single,1
2,L2,French,bougie,8,SingleNaming,1,1513.8,Younger,candle,Single,1
2,L1,English,knife,9,SingleNaming,1,593.6,Younger,knife,Single,1
2,L2,French,stylo,9,SingleNaming,1,837.3,Younger,pen,Single,1
2,L1,English,coat,10,SingleNaming,1,632.4,Younger,coat,Single,1
2,L2,French,jouet,10,SingleNaming,1,859.3,Younger,toy,Single,1
2,L2,French,cheval,11,SingleNaming,1,776.8,Younger,horse,Single,1
2,L1,English,strawberry,11,SingleNaming,1,825.6,Younger,strawberry,Single,1
2,L1,English,trophy,12,SingleNaming,1,746.6,Younger,trophy,Single,1
2,L2,French,manteau,12,SingleNaming,1,879.9,Younger,coat,Single,1
2,L1,English,eye,13,SingleNaming,1,770.4,Younger,eye,Single,1
2,L2,French,avion,13,SingleNaming,1,839.6,Younger,plane,Single,1
2,L2,French,gateau,14,SingleNaming,1,792.9,Younger,cake,Single,1
2,L1,English,cake,14,SingleNaming,1,1190,Younger,cake,Single,1
2,L1,English,teeth,15,SingleNaming,1,725.3,Younger,teeth,Single,1
2,L2,French,échelle,15,SingleNaming,1,1239.5,Younger,ladder,Single,1
2,L1,English,present,16,SingleNaming,1,676.3,Younger,present,Single,1
2,L2,French,couteau,16,SingleNaming,1,2725.1,Younger,knife,Single,1
2,L1,English,brain,17,SingleNaming,1,759.4,Younger,brain,Single,1
2,L2,French,savon,17,SingleNaming,1,2140.2,Younger,soap,Single,1
2,L1,English,toy,18,SingleNaming,1,664.5,Younger,toy,Single,1
2,L2,French,journal,18,SingleNaming,1,860,Younger,newspaper,Single,1
2,L1,English,ladder,19,SingleNaming,1,654.8,Younger,ladder,Single,1
2,L2,French,cerveau,19,SingleNaming,1,1507.7,Younger,brain,Single,1
2,L1,English,plane,20,SingleNaming,1,911.3,Younger,plane,Single,1
2,L2,French,coupe,20,SingleNaming,1,990.5,Younger,trophy,Single,1
2,L1,English,teeth,21,SingleNaming,1,640.2,Younger,teeth,Single,1
2,L2,French,couteau,21,SingleNaming,1,1873.4,Younger,knife,Single,1
2,L1,English,coat,22,SingleNaming,1,578.1,Younger,coat,Single,1
2,L2,French,fraise,22,SingleNaming,1,1343.4,Younger,strawberry,Single,1
2,L1,English,cake,23,SingleNaming,1,850.7,Younger,cake,Single,1
2,L1,English,toy,24,SingleNaming,1,712.9,Younger,toy,Single,1
2,L2,French,cerveau,24,SingleNaming,1,2235.7,Younger,brain,Single,1
2,L1,English,strawberry,25,SingleNaming,1,550.7,Younger,strawberry,Single,1
2,L2,French,oeil,25,SingleNaming,1,1477.9,Younger,eye,Single,1
2,L1,English,plane,26,SingleNaming,1,611.3,Younger,plane,Single,1
2,L2,French,échelle,26,SingleNaming,1,1907.7,Younger,ladder,Single,1
2,L1,English,knife,27,SingleNaming,1,513.2,Younger,knife,Single,1
2,L2,French,valise,27,SingleNaming,1,2169.8,Younger,suitcase,Single,1
2,L1,English,suitcase,28,SingleNaming,1,888.1,Younger,suitcase,Single,1
2,L2,French,dents,28,SingleNaming,1,2415,Younger,teeth,Single,1
2,L1,English,trophy,29,SingleNaming,1,979.9,Younger,trophy,Single,1
2,L2,French,stylo,29,SingleNaming,1,1638.7,Younger,pen,Single,1
2,L1,English,ladder,30,SingleNaming,1,567.5,Younger,ladder,Single,1
2,L2,French,jouet,30,SingleNaming,1,2059.6,Younger,toy,Single,1
2,L1,English,eye,31,SingleNaming,1,729.8,Younger,eye,Single,1
2,L2,French,cheval,31,SingleNaming,1,974.8,Younger,horse,Single,1
2,L1,English,newspaper,32,SingleNaming,1,675.9,Younger,newspaper,Single,1
2,L2,French,manteau,32,SingleNaming,1,1443.9,Younger,coat,Single,1
2,L1,English,candle,33,SingleNaming,1,648,Younger,candle,Single,1
2,L2,French,avion,33,SingleNaming,1,2536,Younger,plane,Single,1
2,L1,English,present,34,SingleNaming,1,688.8,Younger,present,Single,1
2,L2,French,gateau,34,SingleNaming,1,2230.3,Younger,cake,Single,1
2,L1,English,horse,35,SingleNaming,1,1197.5,Younger,horse,Single,1
2,L2,French,bougie,35,SingleNaming,1,2602.3,Younger,candle,Single,1
2,L1,English,brain,36,SingleNaming,1,1074.2,Younger,brain,Single,1
2,L2,French,balai,36,SingleNaming,1,2592.8,Younger,broom,Single,1
2,L1,English,cup,37,SingleNaming,1,951.2,Younger,cup,Single,1
2,L2,French,savon,37,SingleNaming,1,1808.5,Younger,soap,Single,1
2,L1,English,pen,38,SingleNaming,1,652.5,Younger,pen,Single,1
2,L2,French,journal,38,SingleNaming,1,1497.4,Younger,newspaper,Single,1
2,L1,English,soap,39,SingleNaming,1,979.3,Younger,soap,Single,1
2,L2,French,cadeau,39,SingleNaming,1,2555.4,Younger,present,Single,1
2,L1,English,broom,40,SingleNaming,1,624.6,Younger,broom,Single,1
2,L2,French,coupe,40,SingleNaming,1,2172.4,Younger,trophy,Single,1
2,L2,French,valise,108,nonswitch,3,840.5,Younger,suitcase,Dual,0
2,L1,English,plane,44,switch,5,822.2,Younger,plane,Dual,0
2,L2,French,oeil,1,X,7,2587.7,Younger,eye,Dual,1
2,L1,English,soap,35,switch,7,1274.1,Younger,soap,Dual,1
2,L1,English,cake,41,X,7,932.2,Younger,cake,Dual,1
2,L1,English,eye,45,nonswitch,7,800.7,Younger,eye,Dual,1
2,L2,French,coupe,51,nonswitch,7,2584.1,Younger,trophy,Dual,1
2,L2,French,oeil,81,X,7,1065.3,Younger,eye,Dual,1
2,L1,English,trophy,109,switch,7,832.7,Younger,trophy,Dual,1
2,L1,English,candle,121,X,7,877.3,Younger,candle,Dual,1
3,L2,French,cerveau,7,nonswitch,0,X,Younger,brain,Dual,0
3,L2,French,coupe,59,switch,0,X,Younger,trophy,Dual,0
3,L2,French,coupe,72,nonswitch,0,X,Younger,trophy,Dual,0
3,L2,French,coupe,102,nonswitch,0,X,Younger,trophy,Dual,0
3,L2,French,coupe,127,switch,0,X,Younger,trophy,Dual,0
3,L2,French,manteau,144,nonswitch,0,X,Younger,coat,Dual,0
3,L2,French,cadeau,152,nonswitch,0,X,Younger,present,Dual,0
3,L2,French,manteau,158,switch,0,X,Younger,coat,Dual,0
3,L1,English,present,9,SingleNaming,0,X,Younger,present,Single,0
3,L2,French,échelle,13,SingleNaming,0,X,Younger,ladder,Single,0
3,L2,French,coupe,14,SingleNaming,0,X,Younger,trophy,Single,0
3,L2,French,cadeau,17,SingleNaming,0,X,Younger,present,Single,0
3,L1,English,newspaper,25,SingleNaming,0,X,Younger,newspaper,Single,0
3,L1,English,cake,34,SingleNaming,0,X,Younger,cake,Single,0
3,L2,French,coupe,39,SingleNaming,0,X,Younger,trophy,Single,0
3,L2,French,tasse,2,switch,1,1204.1,Younger,cup,Dual,1
3,L1,English,horse,3,switch,1,1758.9,Younger,horse,Dual,1
3,L1,English,eye,4,nonswitch,1,1223.5,Younger,eye,Dual,1
3,L1,English,suitcase,5,nonswitch,1,1085.4,Younger,suitcase,Dual,1
3,L2,French,échelle,6,switch,1,1488.3,Younger,ladder,Dual,1
3,L2,French,dents,9,switch,1,1265,Younger,teeth,Dual,1
3,L1,English,soap,10,switch,1,1182.3,Younger,soap,Dual,1
3,L1,English,candle,11,nonswitch,1,1216.6,Younger,candle,Dual,1
3,L1,English,toy,12,nonswitch,1,1247.6,Younger,toy,Dual,1
3,L1,English,teeth,13,nonswitch,1,1407.1,Younger,teeth,Dual,1
3,L2,French,cerveau,14,switch,1,1185.9,Younger,brain,Dual,1
3,L2,French,dents,15,nonswitch,1,2172.4,Younger,teeth,Dual,1
3,L1,English,brain,16,switch,1,1389,Younger,brain,Dual,1
3,L1,English,knife,17,nonswitch,1,997.3,Younger,knife,Dual,1
3,L2,French,stylo,18,switch,1,941.1,Younger,pen,Dual,1
3,L1,English,toy,19,switch,1,1137.8,Younger,toy,Dual,1
3,L1,English,cup,20,nonswitch,1,1091.6,Younger,cup,Dual,1
3,L2,French,gateau,21,switch,1,1088,Younger,cake,Dual,1
3,L2,French,journal,22,nonswitch,1,1084.4,Younger,newspaper,Dual,1
3,L1,English,trophy,23,switch,1,2241.3,Younger,trophy,Dual,1
3,L1,English,present,24,nonswitch,1,1494.2,Younger,present,Dual,1
3,L2,French,couteau,27,switch,1,2170.2,Younger,knife,Dual,1
3,L2,French,bougie,28,nonswitch,1,1952,Younger,candle,Dual,1
3,L1,English,teeth,29,switch,1,1711.8,Younger,teeth,Dual,1
3,L1,English,trophy,30,nonswitch,1,2452.1,Younger,trophy,Dual,1
3,L2,French,balai,31,switch,1,1913.8,Younger,broom,Dual,1
3,L2,French,oeil,32,nonswitch,1,1726.3,Younger,eye,Dual,1
3,L2,French,tasse,33,nonswitch,1,1364.1,Younger,cup,Dual,1
3,L1,English,suitcase,34,switch,1,1102.5,Younger,suitcase,Dual,1
3,L2,French,savon,35,switch,1,924.8,Younger,soap,Dual,1
3,L1,English,present,36,switch,1,1373.6,Younger,present,Dual,1
3,L1,English,strawberry,37,nonswitch,1,1365.3,Younger,strawberry,Dual,1
3,L2,French,avion,38,switch,1,1389.1,Younger,plane,Dual,1
3,L2,French,balai,39,nonswitch,1,1204.1,Younger,broom,Dual,1
3,L1,English,coat,40,switch,1,1584.9,Younger,coat,Dual,1
3,L2,French,valise,42,nonswitch,1,1051.7,Younger,suitcase,Dual,1
3,L1,English,cup,43,switch,1,1707.3,Younger,cup,Dual,1
3,L1,English,newspaper,44,nonswitch,1,1147.2,Younger,newspaper,Dual,1
3,L1,English,coat,45,nonswitch,1,1194.3,Younger,coat,Dual,1
3,L1,English,cake,46,nonswitch,1,1051.7,Younger,cake,Dual,1
3,L2,French,bougie,47,switch,1,1817,Younger,candle,Dual,1
3,L2,French,manteau,48,nonswitch,1,1037.2,Younger,coat,Dual,1
3,L2,French,cadeau,49,nonswitch,1,1987.4,Younger,present,Dual,1
3,L1,English,eye,50,switch,1,1831.5,Younger,eye,Dual,1
3,L1,English,plane,51,nonswitch,1,1033.6,Younger,plane,Dual,1
3,L2,French,oeil,52,switch,1,1059,Younger,eye,Dual,1
3,L1,English,newspaper,53,switch,1,1304.8,Younger,newspaper,Dual,1
3,L1,English,soap,54,nonswitch,1,1298.3,Younger,soap,Dual,1
3,L2,French,manteau,55,switch,1,1204.1,Younger,coat,Dual,1
3,L2,French,avion,56,nonswitch,1,1418,Younger,plane,Dual,1
3,L2,French,fraise,57,nonswitch,1,1222.2,Younger,strawberry,Dual,1
3,L1,English,knife,58,switch,1,1222.2,Younger,knife,Dual,1
3,L1,English,present,61,switch,1,2119.7,Younger,present,Dual,1
3,L2,French,stylo,62,switch,1,897,Younger,pen,Dual,1
3,L2,French,jouet,63,nonswitch,1,1305.6,Younger,toy,Dual,1
3,L2,French,valise,66,switch,1,1269.3,Younger,suitcase,Dual,1
3,L2,French,savon,67,nonswitch,1,875.6,Younger,soap,Dual,1
3,L2,French,cheval,68,nonswitch,1,1208,Younger,horse,Dual,1
3,L1,English,plane,69,switch,1,1098.9,Younger,plane,Dual,1
3,L1,English,brain,70,nonswitch,1,1059,Younger,brain,Dual,1
3,L2,French,cadeau,71,switch,1,1798.1,Younger,present,Dual,1
3,L1,English,broom,74,switch,1,1214.2,Younger,broom,Dual,1
3,L2,French,journal,75,switch,1,1154.9,Younger,newspaper,Dual,1
3,L1,English,strawberry,76,switch,1,1267.4,Younger,strawberry,Dual,1
3,L1,English,broom,77,nonswitch,1,1095.3,Younger,broom,Dual,1
3,L2,French,fraise,78,switch,1,1225.8,Younger,strawberry,Dual,1
3,L2,French,gateau,79,nonswitch,1,1213.3,Younger,cake,Dual,1
3,L1,English,ladder,80,switch,1,1334.6,Younger,ladder,Dual,1
3,L2,French,tasse,82,switch,1,1519.6,Younger,cup,Dual,1
3,L1,English,pen,83,switch,1,1291.1,Younger,pen,Dual,1
3,L1,English,present,84,nonswitch,1,1183,Younger,present,Dual,1
3,L1,English,teeth,85,nonswitch,1,1023.2,Younger,teeth,Dual,1
3,L2,French,balai,86,switch,1,1225.7,Younger,broom,Dual,1
3,L2,French,gateau,87,nonswitch,1,1046.8,Younger,cake,Dual,1
3,L1,English,pen,90,switch,1,1664.6,Younger,pen,Dual,1
3,L1,English,toy,91,nonswitch,1,1098.8,Younger,toy,Dual,1
3,L1,English,coat,92,nonswitch,1,2556.2,Younger,coat,Dual,1
3,L1,English,suitcase,93,nonswitch,1,1138.8,Younger,suitcase,Dual,1
3,L2,French,cerveau,94,switch,1,1418,Younger,brain,Dual,1
3,L2,French,balai,95,nonswitch,1,1477.2,Younger,broom,Dual,1
3,L1,English,suitcase,96,switch,1,1448.1,Younger,suitcase,Dual,1
3,L1,English,cup,97,nonswitch,1,1246.3,Younger,cup,Dual,1
3,L2,French,jouet,98,switch,1,1849.6,Younger,toy,Dual,1
3,L1,English,eye,99,switch,1,2161.5,Younger,eye,Dual,1
3,L1,English,broom,100,nonswitch,1,895.8,Younger,broom,Dual,1
3,L2,French,échelle,101,switch,1,979.2,Younger,ladder,Dual,1
3,L1,English,newspaper,104,nonswitch,1,1165.4,Younger,newspaper,Dual,1
3,L1,English,eye,105,nonswitch,1,2023.7,Younger,eye,Dual,1
3,L1,English,strawberry,106,nonswitch,1,1432.5,Younger,strawberry,Dual,1
3,L2,French,journal,107,switch,1,1596.1,Younger,newspaper,Dual,1
3,L2,French,fraise,108,nonswitch,1,1015.5,Younger,strawberry,Dual,1
3,L1,English,teeth,109,switch,1,1178.7,Younger,teeth,Dual,1
3,L1,English,ladder,110,nonswitch,1,1314.5,Younger,ladder,Dual,1
3,L2,French,dents,111,switch,1,1479.7,Younger,teeth,Dual,1
3,L2,French,stylo,112,nonswitch,1,812.4,Younger,pen,Dual,1
3,L2,French,savon,113,nonswitch,1,1052.3,Younger,soap,Dual,1
3,L1,English,horse,114,switch,1,1198.6,Younger,horse,Dual,1
3,L1,English,horse,117,nonswitch,1,1088,Younger,horse,Dual,1
3,L2,French,couteau,118,switch,1,1613.9,Younger,knife,Dual,1
3,L2,French,valise,119,nonswitch,1,1119.4,Younger,suitcase,Dual,1
3,L1,English,cup,120,switch,1,933.8,Younger,cup,Dual,1
3,L2,French,cerveau,122,nonswitch,1,1457.9,Younger,brain,Dual,1
3,L1,English,knife,123,switch,1,1161.7,Younger,knife,Dual,1
3,L1,English,cake,124,nonswitch,1,957.4,Younger,cake,Dual,1
3,L1,English,brain,125,nonswitch,1,1224.1,Younger,brain,Dual,1
3,L1,English,soap,126,nonswitch,1,1355.2,Younger,soap,Dual,1
3,L2,French,cheval,129,nonswitch,1,1069.9,Younger,horse,Dual,1
3,L1,English,cake,130,switch,1,1196.8,Younger,cake,Dual,1
3,L1,English,candle,131,nonswitch,1,1080.7,Younger,candle,Dual,1
3,L2,French,oeil,132,switch,1,1135.1,Younger,eye,Dual,1
3,L1,English,broom,133,switch,1,1422,Younger,broom,Dual,1
3,L1,English,trophy,134,nonswitch,1,1056,Younger,trophy,Dual,1
3,L2,French,bougie,135,switch,1,2558.3,Younger,candle,Dual,1
3,L2,French,stylo,136,nonswitch,1,707.1,Younger,pen,Dual,1
3,L2,French,échelle,137,nonswitch,1,944.5,Younger,ladder,Dual,1
3,L1,English,toy,138,switch,1,1677.2,Younger,toy,Dual,1
3,L2,French,valise,139,switch,1,1436.2,Younger,suitcase,Dual,1
3,L2,French,avion,140,nonswitch,1,1320.1,Younger,plane,Dual,1
3,L1,English,ladder,141,switch,1,1360,Younger,ladder,Dual,1
3,L2,French,savon,142,switch,1,805.1,Younger,soap,Dual,1
3,L2,French,journal,143,nonswitch,1,1066.2,Younger,newspaper,Dual,1
3,L2,French,avion,146,switch,1,1033.6,Younger,plane,Dual,1
3,L2,French,couteau,147,nonswitch,1,1345.5,Younger,knife,Dual,1
3,L2,French,bougie,148,nonswitch,1,2513.3,Younger,candle,Dual,1
3,L1,English,newspaper,149,switch,1,1205.9,Younger,newspaper,Dual,1
3,L1,English,plane,150,nonswitch,1,881.3,Younger,plane,Dual,1
3,L2,French,jouet,151,switch,1,1059,Younger,toy,Dual,1
3,L1,English,soap,154,switch,1,1128.3,Younger,soap,Dual,1
3,L2,French,cheval,155,switch,1,859.5,Younger,horse,Dual,1
3,L1,English,plane,156,switch,1,1084.4,Younger,plane,Dual,1
3,L1,English,pen,157,nonswitch,1,1009.5,Younger,pen,Dual,1
3,L1,English,coat,160,switch,1,1214.9,Younger,coat,Dual,1
3,L1,English,broom,1,SingleNaming,1,1045.6,Younger,broom,Single,1
3,L2,French,cerveau,1,SingleNaming,1,1773.4,Younger,brain,Single,1
3,L2,French,cheval,2,SingleNaming,1,787,Younger,horse,Single,1
3,L1,English,ladder,2,SingleNaming,1,979.2,Younger,ladder,Single,1
3,L1,English,coat,3,SingleNaming,1,1673.3,Younger,coat,Single,1
3,L2,French,oeil,3,SingleNaming,1,2564.1,Younger,eye,Single,1
3,L2,French,balai,4,SingleNaming,1,1164.4,Younger,broom,Single,1
3,L1,English,newspaper,4,SingleNaming,1,1457.8,Younger,newspaper,Single,1
3,L2,French,manteau,5,SingleNaming,1,961.1,Younger,coat,Single,1
3,L1,English,suitcase,5,SingleNaming,1,1327.4,Younger,suitcase,Single,1
3,L2,French,savon,6,SingleNaming,1,1258.5,Younger,soap,Single,1
3,L1,English,plane,6,SingleNaming,1,1360,Younger,plane,Single,1
3,L1,English,soap,7,SingleNaming,1,855.9,Younger,soap,Single,1
3,L2,French,jouet,7,SingleNaming,1,1889.5,Younger,toy,Single,1
3,L2,French,tasse,8,SingleNaming,1,1152.7,Younger,cup,Single,1
3,L1,English,eye,8,SingleNaming,1,1190.9,Younger,eye,Single,1
3,L2,French,fraise,9,SingleNaming,1,993.7,Younger,strawberry,Single,1
3,L2,French,couteau,10,SingleNaming,1,1514.8,Younger,knife,Single,1
3,L1,English,trophy,10,SingleNaming,1,1697.3,Younger,trophy,Single,1
3,L1,English,teeth,11,SingleNaming,1,969.6,Younger,teeth,Single,1
3,L2,French,dents,11,SingleNaming,1,1117,Younger,teeth,Single,1
3,L1,English,pen,12,SingleNaming,1,707.2,Younger,pen,Single,1
3,L2,French,bougie,12,SingleNaming,1,1900.4,Younger,candle,Single,1
3,L1,English,toy,13,SingleNaming,1,1067.5,Younger,toy,Single,1
3,L1,English,knife,14,SingleNaming,1,2132.5,Younger,knife,Single,1
3,L1,English,cup,15,SingleNaming,1,1041.1,Younger,cup,Single,1
3,L2,French,gateau,15,SingleNaming,1,1204.4,Younger,cake,Single,1
3,L1,English,horse,16,SingleNaming,1,975.6,Younger,horse,Single,1
3,L2,French,journal,16,SingleNaming,1,1106.1,Younger,newspaper,Single,1
3,L1,English,candle,17,SingleNaming,1,924.8,Younger,candle,Single,1
3,L2,French,stylo,18,SingleNaming,1,1057.8,Younger,pen,Single,1
3,L1,English,brain,18,SingleNaming,1,1089.6,Younger,brain,Single,1
3,L2,French,valise,19,SingleNaming,1,932.1,Younger,suitcase,Single,1
3,L1,English,strawberry,19,SingleNaming,1,1080.7,Younger,strawberry,Single,1
3,L1,English,cake,20,SingleNaming,1,1598.3,Younger,cake,Single,1
3,L2,French,avion,20,SingleNaming,1,1636.6,Younger,plane,Single,1
3,L1,English,knife,21,SingleNaming,1,1004.6,Younger,knife,Single,1
3,L2,French,tasse,21,SingleNaming,1,1021.5,Younger,cup,Single,1
3,L2,French,balai,22,SingleNaming,1,1024.5,Younger,broom,Single,1
3,L1,English,present,22,SingleNaming,1,1889.5,Younger,present,Single,1
3,L2,French,avion,23,SingleNaming,1,964.7,Younger,plane,Single,1
3,L1,English,horse,23,SingleNaming,1,1287.5,Younger,horse,Single,1
3,L2,French,cheval,24,SingleNaming,1,696.3,Younger,horse,Single,1
3,L1,English,teeth,24,SingleNaming,1,1073.9,Younger,teeth,Single,1
3,L2,French,gateau,25,SingleNaming,1,939.4,Younger,cake,Single,1
3,L2,French,cadeau,26,SingleNaming,1,1920.7,Younger,present,Single,1
3,L1,English,candle,26,SingleNaming,1,2108.2,Younger,candle,Single,1
3,L1,English,brain,27,SingleNaming,1,602,Younger,brain,Single,1
3,L2,French,journal,27,SingleNaming,1,957.4,Younger,newspaper,Single,1
3,L1,English,plane,28,SingleNaming,1,808.7,Younger,plane,Single,1
3,L2,French,valise,28,SingleNaming,1,898.6,Younger,suitcase,Single,1
3,L2,French,dents,29,SingleNaming,1,1169.2,Younger,teeth,Single,1
3,L1,English,suitcase,29,SingleNaming,1,1840.5,Younger,suitcase,Single,1
3,L1,English,trophy,30,SingleNaming,1,947.8,Younger,trophy,Single,1
3,L2,French,manteau,30,SingleNaming,1,982.8,Younger,coat,Single,1
3,L2,French,stylo,31,SingleNaming,1,747.1,Younger,pen,Single,1
3,L1,English,pen,31,SingleNaming,1,830.5,Younger,pen,Single,1
3,L2,French,savon,32,SingleNaming,1,812.4,Younger,soap,Single,1
3,L1,English,strawberry,32,SingleNaming,1,925.8,Younger,strawberry,Single,1
3,L2,French,cerveau,33,SingleNaming,1,1175,Younger,brain,Single,1
3,L1,English,ladder,33,SingleNaming,1,1425.3,Younger,ladder,Single,1
3,L2,French,couteau,34,SingleNaming,1,1653.8,Younger,knife,Single,1
3,L1,English,coat,35,SingleNaming,1,881.3,Younger,coat,Single,1
3,L2,French,bougie,35,SingleNaming,1,1584.9,Younger,candle,Single,1
3,L1,English,toy,36,SingleNaming,1,698,Younger,toy,Single,1
3,L2,French,échelle,36,SingleNaming,1,992.4,Younger,ladder,Single,1
3,L2,French,fraise,37,SingleNaming,1,783.4,Younger,strawberry,Single,1
3,L1,English,broom,37,SingleNaming,1,1088,Younger,broom,Single,1
3,L2,French,oeil,38,SingleNaming,1,1142.4,Younger,eye,Single,1
3,L1,English,eye,38,SingleNaming,1,1427.9,Younger,eye,Single,1
3,L1,English,soap,39,SingleNaming,1,1198.4,Younger,soap,Single,1
3,L1,English,cup,40,SingleNaming,1,696.3,Younger,cup,Single,1
3,L2,French,jouet,40,SingleNaming,1,848.6,Younger,toy,Single,1
3,L1,English,ladder,25,nonswitch,3,1697.3,Younger,ladder,Dual,0
3,L1,English,strawberry,88,switch,3,1011.8,Younger,strawberry,Dual,0
3,L2,French,fraise,115,switch,3,1182.3,Younger,strawberry,Dual,0
3,L2,French,échelle,64,nonswitch,5,1065.7,Younger,ladder,Dual,0
3,L1,English,pen,1,X,7,1233.1,Younger,pen,Dual,1
3,L1,English,cake,8,switch,7,1468.8,Younger,cake,Dual,1
3,L1,English,horse,26,nonswitch,7,1331,Younger,horse,Dual,1
3,L2,French,cheval,41,X,7,848.6,Younger,horse,Dual,1
3,L2,French,jouet,60,nonswitch,7,1454.3,Younger,toy,Dual,1
3,L1,English,candle,65,switch,7,1420.4,Younger,candle,Dual,1
3,L2,French,couteau,73,nonswitch,7,1599.4,Younger,knife,Dual,1
3,L1,English,knife,81,X,7,1425.3,Younger,knife,Dual,1
3,L2,French,cadeau,89,switch,7,2673.4,Younger,present,Dual,1
3,L1,English,brain,103,switch,7,1827.8,Younger,brain,Dual,1
3,L1,English,candle,116,switch,7,1752.6,Younger,candle,Dual,1
3,L2,French,gateau,121,X,7,1051.7,Younger,cake,Dual,1
3,L2,French,tasse,128,nonswitch,7,1283.8,Younger,cup,Dual,1
3,L1,English,trophy,145,switch,7,855.4,Younger,trophy,Dual,1
3,L2,French,dents,153,nonswitch,7,1033.2,Younger,teeth,Dual,1
3,L2,French,oeil,159,nonswitch,7,1211.3,Younger,eye,Dual,1
4,L2,German,Stift,62,switch,0,X,Younger,pen,Dual,0
4,L2,German,Stift,18,SingleNaming,0,X,Younger,pen,Single,0
4,L2,German,Koffer,19,SingleNaming,0,X,Younger,suitcase,Single,0
4,L2,German,Tasse,2,switch,1,1014.1,Younger,cup,Dual,1
4,L1,English,horse,3,switch,1,1540.8,Younger,horse,Dual,1
4,L1,English,eye,4,nonswitch,1,1033,Younger,eye,Dual,1
4,L1,English,suitcase,5,nonswitch,1,1505.5,Younger,suitcase,Dual,1
4,L2,German,Leiter,6,switch,1,1380.5,Younger,ladder,Dual,1
4,L2,German,Gehirn,7,nonswitch,1,1657.4,Younger,brain,Dual,1
4,L1,English,cake,8,switch,1,1321.6,Younger,cake,Dual,1
4,L2,German,Zähne,9,switch,1,1488.2,Younger,teeth,Dual,1
4,L1,English,soap,10,switch,1,979,Younger,soap,Dual,1
4,L1,English,candle,11,nonswitch,1,1299.3,Younger,candle,Dual,1
4,L1,English,toy,12,nonswitch,1,1250.7,Younger,toy,Dual,1
4,L1,English,teeth,13,nonswitch,1,1104.9,Younger,teeth,Dual,1
4,L2,German,Gehirn,14,switch,1,993.8,Younger,brain,Dual,1
4,L2,German,Zähne,15,nonswitch,1,915.1,Younger,teeth,Dual,1
4,L1,English,brain,16,switch,1,950.3,Younger,brain,Dual,1
4,L1,English,knife,17,nonswitch,1,903.2,Younger,knife,Dual,1
4,L2,German,Stift,18,switch,1,1573.6,Younger,pen,Dual,1
4,L1,English,toy,19,switch,1,1088.7,Younger,toy,Dual,1
4,L1,English,cup,20,nonswitch,1,1035,Younger,cup,Dual,1
4,L2,German,Kuchen,21,switch,1,1339.6,Younger,cake,Dual,1
4,L2,German,Zeitung,22,nonswitch,1,1497.6,Younger,newspaper,Dual,1
4,L1,English,trophy,23,switch,1,969.8,Younger,trophy,Dual,1
4,L1,English,present,24,nonswitch,1,932.2,Younger,present,Dual,1
4,L1,English,ladder,25,nonswitch,1,1005.4,Younger,ladder,Dual,1
4,L1,English,horse,26,nonswitch,1,979.3,Younger,horse,Dual,1
4,L2,German,Messer,27,switch,1,1026.5,Younger,knife,Dual,1
4,L2,German,Kerze,28,nonswitch,1,2018.7,Younger,candle,Dual,1
4,L1,English,teeth,29,switch,1,1088,Younger,teeth,Dual,1
4,L1,English,trophy,30,nonswitch,1,950.2,Younger,trophy,Dual,1
4,L2,German,Besen,31,switch,1,2200.8,Younger,broom,Dual,1
4,L2,German,Auge,32,nonswitch,1,1184.8,Younger,eye,Dual,1
4,L2,German,Tasse,33,nonswitch,1,1408.6,Younger,cup,Dual,1
4,L1,English,suitcase,34,switch,1,1173.3,Younger,suitcase,Dual,1
4,L2,German,Seife,35,switch,1,1116.5,Younger,soap,Dual,1
4,L1,English,present,36,switch,1,963.5,Younger,present,Dual,1
4,L1,English,strawberry,37,nonswitch,1,1437.6,Younger,strawberry,Dual,1
4,L2,German,Flugzeug,38,switch,1,1148.1,Younger,plane,Dual,1
4,L2,German,Besen,39,nonswitch,1,978,Younger,broom,Dual,1
4,L1,English,coat,40,switch,1,1199,Younger,coat,Dual,1
4,L2,German,Koffer,42,nonswitch,1,1731.2,Younger,suitcase,Dual,1
4,L1,English,cup,43,switch,1,1158.4,Younger,cup,Dual,1
4,L1,English,newspaper,44,nonswitch,1,979.8,Younger,newspaper,Dual,1
4,L1,English,coat,45,nonswitch,1,1291.1,Younger,coat,Dual,1
4,L1,English,cake,46,nonswitch,1,1106.8,Younger,cake,Dual,1
4,L2,German,Kerze,47,switch,1,1387.1,Younger,candle,Dual,1
4,L2,German,Mantel,48,nonswitch,1,1185.7,Younger,coat,Dual,1
4,L2,German,Geschenk,49,nonswitch,1,2135.4,Younger,present,Dual,1
4,L1,English,eye,50,switch,1,1367.7,Younger,eye,Dual,1
4,L1,English,plane,51,nonswitch,1,1385.1,Younger,plane,Dual,1
4,L2,German,Auge,52,switch,1,1024.3,Younger,eye,Dual,1
4,L1,English,newspaper,53,switch,1,1031,Younger,newspaper,Dual,1
4,L1,English,soap,54,nonswitch,1,974.9,Younger,soap,Dual,1
4,L2,German,Mantel,55,switch,1,1160.4,Younger,coat,Dual,1
4,L2,German,Flugzeug,56,nonswitch,1,999.4,Younger,plane,Dual,1
4,L2,German,Erdbeere,57,nonswitch,1,1022.5,Younger,strawberry,Dual,1
4,L1,English,knife,58,switch,1,1255.2,Younger,knife,Dual,1
4,L2,German,Pokal,59,switch,1,1866,Younger,trophy,Dual,1
4,L2,German,Spielzeug,60,nonswitch,1,1428,Younger,toy,Dual,1
4,L1,English,present,61,switch,1,947.6,Younger,present,Dual,1
4,L2,German,Leiter,64,nonswitch,1,986.2,Younger,ladder,Dual,1
4,L1,English,candle,65,switch,1,1547.3,Younger,candle,Dual,1
4,L2,German,Koffer,66,switch,1,1034.3,Younger,suitcase,Dual,1
4,L2,German,Seife,67,nonswitch,1,878.4,Younger,soap,Dual,1
4,L2,German,Pferd,68,nonswitch,1,1084,Younger,horse,Dual,1
4,L1,English,plane,69,switch,1,1516.5,Younger,plane,Dual,1
4,L1,English,brain,70,nonswitch,1,1979.8,Younger,brain,Dual,1
4,L2,German,Geschenk,71,switch,1,1197.9,Younger,present,Dual,1
4,L2,German,Pokal,72,nonswitch,1,1672.8,Younger,trophy,Dual,1
4,L2,German,Messer,73,nonswitch,1,1193.8,Younger,knife,Dual,1
4,L1,English,broom,74,switch,1,1442.2,Younger,broom,Dual,1
4,L2,German,Zeitung,75,switch,1,2454.6,Younger,newspaper,Dual,1
4,L1,English,strawberry,76,switch,1,1153.6,Younger,strawberry,Dual,1
4,L1,English,broom,77,nonswitch,1,842.4,Younger,broom,Dual,1
4,L2,German,Erdbeere,78,switch,1,876.1,Younger,strawberry,Dual,1
4,L2,German,Kuchen,79,nonswitch,1,1353.4,Younger,cake,Dual,1
4,L1,English,ladder,80,switch,1,1083.3,Younger,ladder,Dual,1
4,L2,German,Tasse,82,switch,1,935.8,Younger,cup,Dual,1
4,L1,English,pen,83,switch,1,1027.1,Younger,pen,Dual,1
4,L1,English,present,84,nonswitch,1,1110,Younger,present,Dual,1
4,L1,English,teeth,85,nonswitch,1,1009.4,Younger,teeth,Dual,1
4,L2,German,Besen,86,switch,1,2145.1,Younger,broom,Dual,1
4,L2,German,Kuchen,87,nonswitch,1,746.5,Younger,cake,Dual,1
4,L1,English,strawberry,88,switch,1,931.5,Younger,strawberry,Dual,1
4,L2,German,Geschenk,89,switch,1,2602.1,Younger,present,Dual,1
4,L1,English,pen,90,switch,1,945.4,Younger,pen,Dual,1
4,L1,English,toy,91,nonswitch,1,1240.8,Younger,toy,Dual,1
4,L1,English,coat,92,nonswitch,1,1250.7,Younger,coat,Dual,1
4,L1,English,suitcase,93,nonswitch,1,847.3,Younger,suitcase,Dual,1
4,L2,German,Gehirn,94,switch,1,1066,Younger,brain,Dual,1
4,L2,German,Besen,95,nonswitch,1,1358.9,Younger,broom,Dual,1
4,L1,English,suitcase,96,switch,1,824.2,Younger,suitcase,Dual,1
4,L1,English,cup,97,nonswitch,1,1264,Younger,cup,Dual,1
4,L2,German,Spielzeug,98,switch,1,2684.9,Younger,toy,Dual,1
4,L1,English,eye,99,switch,1,1115.7,Younger,eye,Dual,1
4,L1,English,broom,100,nonswitch,1,889.8,Younger,broom,Dual,1
4,L2,German,Leiter,101,switch,1,1040.7,Younger,ladder,Dual,1
4,L2,German,Pokal,102,nonswitch,1,1177.7,Younger,trophy,Dual,1
4,L1,English,brain,103,switch,1,1874.1,Younger,brain,Dual,1
4,L1,English,newspaper,104,nonswitch,1,871,Younger,newspaper,Dual,1
4,L1,English,eye,105,nonswitch,1,868.5,Younger,eye,Dual,1
4,L1,English,strawberry,106,nonswitch,1,777.1,Younger,strawberry,Dual,1
4,L2,German,Zeitung,107,switch,1,1396.4,Younger,newspaper,Dual,1
4,L2,German,Erdbeere,108,nonswitch,1,1296.6,Younger,strawberry,Dual,1
4,L1,English,teeth,109,switch,1,1507.6,Younger,teeth,Dual,1
4,L1,English,ladder,110,nonswitch,1,1099.3,Younger,ladder,Dual,1
4,L2,German,Zähne,111,switch,1,1790,Younger,teeth,Dual,1
4,L2,German,Stift,112,nonswitch,1,2210.7,Younger,pen,Dual,1
4,L2,German,Seife,113,nonswitch,1,2234.6,Younger,soap,Dual,1
4,L1,English,horse,114,switch,1,1607,Younger,horse,Dual,1
4,L2,German,Erdbeere,115,switch,1,967.6,Younger,strawberry,Dual,1
4,L1,English,candle,116,switch,1,830.3,Younger,candle,Dual,1
4,L1,English,horse,117,nonswitch,1,1050.6,Younger,horse,Dual,1
4,L2,German,Messer,118,switch,1,1123.7,Younger,knife,Dual,1
4,L2,German,Koffer,119,nonswitch,1,1374,Younger,suitcase,Dual,1
4,L1,English,cup,120,switch,1,941.6,Younger,cup,Dual,1
4,L2,German,Gehirn,122,nonswitch,1,856.6,Younger,brain,Dual,1
4,L1,English,knife,123,switch,1,1177,Younger,knife,Dual,1
4,L1,English,cake,124,nonswitch,1,1287,Younger,cake,Dual,1
4,L1,English,brain,125,nonswitch,1,1030.7,Younger,brain,Dual,1
4,L1,English,soap,126,nonswitch,1,1237.5,Younger,soap,Dual,1
4,L2,German,Pokal,127,switch,1,1413.4,Younger,trophy,Dual,1
4,L2,German,Tasse,128,nonswitch,1,969.2,Younger,cup,Dual,1
4,L2,German,Pferd,129,nonswitch,1,1386.3,Younger,horse,Dual,1
4,L1,English,cake,130,switch,1,2188.8,Younger,cake,Dual,1
4,L1,English,candle,131,nonswitch,1,904.4,Younger,candle,Dual,1
4,L2,German,Auge,132,switch,1,836.2,Younger,eye,Dual,1
4,L1,English,broom,133,switch,1,1028.7,Younger,broom,Dual,1
4,L1,English,trophy,134,nonswitch,1,1376.6,Younger,trophy,Dual,1
4,L2,German,Kerze,135,switch,1,1338.9,Younger,candle,Dual,1
4,L2,German,Stift,136,nonswitch,1,1011.3,Younger,pen,Dual,1
4,L2,German,Leiter,137,nonswitch,1,1089.5,Younger,ladder,Dual,1
4,L1,English,toy,138,switch,1,1276.2,Younger,toy,Dual,1
4,L2,German,Koffer,139,switch,1,1498.7,Younger,suitcase,Dual,1
4,L2,German,Flugzeug,140,nonswitch,1,1088.7,Younger,plane,Dual,1
4,L1,English,ladder,141,switch,1,857.5,Younger,ladder,Dual,1
4,L2,German,Seife,142,switch,1,1544.2,Younger,soap,Dual,1
4,L2,German,Zeitung,143,nonswitch,1,1390.6,Younger,newspaper,Dual,1
4,L2,German,Mantel,144,nonswitch,1,1099.5,Younger,coat,Dual,1
4,L1,English,trophy,145,switch,1,1793.7,Younger,trophy,Dual,1
4,L2,German,Flugzeug,146,switch,1,1169.7,Younger,plane,Dual,1
4,L2,German,Messer,147,nonswitch,1,915.5,Younger,knife,Dual,1
4,L2,German,Kerze,148,nonswitch,1,1086.9,Younger,candle,Dual,1
4,L1,English,newspaper,149,switch,1,875.7,Younger,newspaper,Dual,1
4,L1,English,plane,150,nonswitch,1,1931.5,Younger,plane,Dual,1
4,L2,German,Spielzeug,151,switch,1,1410,Younger,toy,Dual,1
4,L2,German,Geschenk,152,nonswitch,1,1157.1,Younger,present,Dual,1
4,L2,German,Zähne,153,nonswitch,1,1119.1,Younger,teeth,Dual,1
4,L1,English,soap,154,switch,1,1401.3,Younger,soap,Dual,1
4,L2,German,Pferd,155,switch,1,1032.9,Younger,horse,Dual,1
4,L1,English,plane,156,switch,1,1424.4,Younger,plane,Dual,1
4,L1,English,pen,157,nonswitch,1,1233,Younger,pen,Dual,1
4,L2,German,Mantel,158,switch,1,877.6,Younger,coat,Dual,1
4,L2,German,Auge,159,nonswitch,1,1263.8,Younger,eye,Dual,1
4,L1,English,coat,160,switch,1,1319.3,Younger,coat,Dual,1
4,L1,English,broom,1,SingleNaming,1,1119.3,Younger,broom,Single,1
4,L2,German,Gehirn,1,SingleNaming,1,2490.9,Younger,brain,Single,1
4,L1,English,ladder,2,SingleNaming,1,698.2,Younger,ladder,Single,1
4,L2,German,Pferd,2,SingleNaming,1,1166.1,Younger,horse,Single,1
4,L2,German,Auge,3,SingleNaming,1,892.9,Younger,eye,Single,1
4,L1,English,coat,3,SingleNaming,1,1099.2,Younger,coat,Single,1
4,L1,English,newspaper,4,SingleNaming,1,745.3,Younger,newspaper,Single,1
4,L2,German,Besen,4,SingleNaming,1,2475.1,Younger,broom,Single,1
4,L1,English,suitcase,5,SingleNaming,1,1011,Younger,suitcase,Single,1
4,L2,German,Mantel,5,SingleNaming,1,1360.7,Younger,coat,Single,1
4,L1,English,plane,6,SingleNaming,1,754.7,Younger,plane,Single,1
4,L2,German,Seife,6,SingleNaming,1,844,Younger,soap,Single,1
4,L1,English,soap,7,SingleNaming,1,672.6,Younger,soap,Single,1
4,L2,German,Spielzeug,7,SingleNaming,1,1132.9,Younger,toy,Single,1
4,L1,English,eye,8,SingleNaming,1,824.2,Younger,eye,Single,1
4,L2,German,Tasse,8,SingleNaming,1,1925.2,Younger,cup,Single,1
4,L2,German,Erdbeere,9,SingleNaming,1,978.2,Younger,strawberry,Single,1
4,L1,English,present,9,SingleNaming,1,1543.4,Younger,present,Single,1
4,L1,English,trophy,10,SingleNaming,1,780.8,Younger,trophy,Single,1
4,L2,German,Messer,10,SingleNaming,1,1738.4,Younger,knife,Single,1
4,L2,German,Zähne,11,SingleNaming,1,990.2,Younger,teeth,Single,1
4,L1,English,teeth,11,SingleNaming,1,1173.5,Younger,teeth,Single,1
4,L1,English,pen,12,SingleNaming,1,735.6,Younger,pen,Single,1
4,L2,German,Kerze,12,SingleNaming,1,1058.1,Younger,candle,Single,1
4,L1,English,toy,13,SingleNaming,1,800.2,Younger,toy,Single,1
4,L2,German,Leiter,13,SingleNaming,1,949.2,Younger,ladder,Single,1
4,L2,German,Pokal,14,SingleNaming,1,1439.6,Younger,trophy,Single,1
4,L1,English,knife,14,SingleNaming,1,2666.9,Younger,knife,Single,1
4,L1,English,cup,15,SingleNaming,1,923.6,Younger,cup,Single,1
4,L2,German,Kuchen,15,SingleNaming,1,994.6,Younger,cake,Single,1
4,L1,English,horse,16,SingleNaming,1,636.9,Younger,horse,Single,1
4,L2,German,Zeitung,16,SingleNaming,1,993.9,Younger,newspaper,Single,1
4,L1,English,candle,17,SingleNaming,1,853,Younger,candle,Single,1
4,L2,German,Geschenk,17,SingleNaming,1,1976.9,Younger,present,Single,1
4,L1,English,brain,18,SingleNaming,1,656.1,Younger,brain,Single,1
4,L1,English,strawberry,19,SingleNaming,1,684.9,Younger,strawberry,Single,1
4,L1,English,cake,20,SingleNaming,1,624.2,Younger,cake,Single,1
4,L2,German,Flugzeug,20,SingleNaming,1,1000.5,Younger,plane,Single,1
4,L2,German,Tasse,21,SingleNaming,1,878.2,Younger,cup,Single,1
4,L1,English,knife,21,SingleNaming,1,1131.4,Younger,knife,Single,1
4,L1,English,present,22,SingleNaming,1,1062.8,Younger,present,Single,1
4,L2,German,Besen,22,SingleNaming,1,1066.2,Younger,broom,Single,1
4,L2,German,Flugzeug,23,SingleNaming,1,781.7,Younger,plane,Single,1
4,L1,English,horse,23,SingleNaming,1,1207.3,Younger,horse,Single,1
4,L2,German,Pferd,24,SingleNaming,1,766.6,Younger,horse,Single,1
4,L1,English,teeth,24,SingleNaming,1,1144.5,Younger,teeth,Single,1
4,L1,English,newspaper,25,SingleNaming,1,771.1,Younger,newspaper,Single,1
4,L2,German,Kuchen,25,SingleNaming,1,781.8,Younger,cake,Single,1
4,L1,English,candle,26,SingleNaming,1,671,Younger,candle,Single,1
4,L2,German,Geschenk,26,SingleNaming,1,1115.4,Younger,present,Single,1
4,L1,English,brain,27,SingleNaming,1,755.8,Younger,brain,Single,1
4,L2,German,Zeitung,27,SingleNaming,1,936.5,Younger,newspaper,Single,1
4,L2,German,Koffer,28,SingleNaming,1,976.3,Younger,suitcase,Single,1
4,L1,English,plane,28,SingleNaming,1,2223.9,Younger,plane,Single,1
4,L2,German,Zähne,29,SingleNaming,1,992.3,Younger,teeth,Single,1
4,L1,English,suitcase,29,SingleNaming,1,1224.5,Younger,suitcase,Single,1
4,L1,English,trophy,30,SingleNaming,1,851.6,Younger,trophy,Single,1
4,L2,German,Mantel,30,SingleNaming,1,875.7,Younger,coat,Single,1
4,L1,English,pen,31,SingleNaming,1,691.2,Younger,pen,Single,1
4,L2,German,Stift,31,SingleNaming,1,1940,Younger,pen,Single,1
4,L2,German,Seife,32,SingleNaming,1,1041.2,Younger,soap,Single,1
4,L1,English,strawberry,32,SingleNaming,1,1939.4,Younger,strawberry,Single,1
4,L1,English,ladder,33,SingleNaming,1,777.6,Younger,ladder,Single,1
4,L2,German,Gehirn,33,SingleNaming,1,881.6,Younger,brain,Single,1
4,L1,English,cake,34,SingleNaming,1,607.9,Younger,cake,Single,1
4,L2,German,Messer,34,SingleNaming,1,877.7,Younger,knife,Single,1
4,L2,German,Kerze,35,SingleNaming,1,1065.8,Younger,candle,Single,1
4,L1,English,coat,35,SingleNaming,1,1087.3,Younger,coat,Single,1
4,L1,English,toy,36,SingleNaming,1,731.1,Younger,toy,Single,1
4,L2,German,Leiter,36,SingleNaming,1,1990.5,Younger,ladder,Single,1
4,L1,English,broom,37,SingleNaming,1,836.7,Younger,broom,Single,1
4,L2,German,Erdbeere,37,SingleNaming,1,877.3,Younger,strawberry,Single,1
4,L2,German,Auge,38,SingleNaming,1,658.6,Younger,eye,Single,1
4,L1,English,eye,38,SingleNaming,1,681.6,Younger,eye,Single,1
4,L1,English,soap,39,SingleNaming,1,630.3,Younger,soap,Single,1
4,L2,German,Pokal,39,SingleNaming,1,1126.3,Younger,trophy,Single,1
4,L1,English,cup,40,SingleNaming,1,768.6,Younger,cup,Single,1
4,L2,German,Spielzeug,40,SingleNaming,1,1130.4,Younger,toy,Single,1
4,L1,English,pen,1,X,7,1224.4,Younger,pen,Dual,1
4,L2,German,Pferd,41,X,7,1363.3,Younger,horse,Dual,1
4,L2,German,Spielzeug,63,nonswitch,7,1256.1,Younger,toy,Dual,1
4,L1,English,knife,81,X,7,1032.9,Younger,knife,Dual,1
4,L2,German,Kuchen,121,X,7,889.9,Younger,cake,Dual,1
5,L2,German,Gehirn,14,switch,0,X,Younger,brain,Dual,0
5,L2,German,Stift,18,switch,0,X,Younger,pen,Dual,0
5,L2,German,Zeitung,22,nonswitch,0,X,Younger,newspaper,Dual,0
5,L1,English,present,24,nonswitch,0,X,Younger,present,Dual,0
5,L1,English,trophy,30,nonswitch,0,X,Younger,trophy,Dual,0
5,L1,English,coat,40,switch,0,X,Younger,coat,Dual,0
5,L2,German,Mantel,48,nonswitch,0,X,Younger,coat,Dual,0
5,L2,German,Mantel,55,switch,0,X,Younger,coat,Dual,0
5,L2,German,Stift,62,switch,0,X,Younger,pen,Dual,0
5,L2,German,Leiter,64,nonswitch,0,X,Younger,ladder,Dual,0
5,L2,German,Koffer,66,switch,0,X,Younger,suitcase,Dual,0
5,L1,English,brain,70,nonswitch,0,X,Younger,brain,Dual,0
5,L1,English,broom,74,switch,0,X,Younger,broom,Dual,0
5,L2,German,Tasse,82,switch,0,X,Younger,cup,Dual,0
5,L1,English,suitcase,96,switch,0,X,Younger,suitcase,Dual,0
5,L1,English,broom,100,nonswitch,0,X,Younger,broom,Dual,0
5,L2,German,Leiter,101,switch,0,X,Younger,ladder,Dual,0
5,L2,German,Erdbeere,108,nonswitch,0,X,Younger,strawberry,Dual,0
5,L2,German,Seife,113,nonswitch,0,X,Younger,soap,Dual,0
5,L1,English,cup,120,switch,0,X,Younger,cup,Dual,0
5,L1,English,soap,126,nonswitch,0,X,Younger,soap,Dual,0
5,L2,German,Seife,142,switch,0,X,Younger,soap,Dual,0
5,L2,German,Zeitung,143,nonswitch,0,X,Younger,newspaper,Dual,0
5,L1,English,soap,154,switch,0,X,Younger,soap,Dual,0
5,L2,German,Mantel,158,switch,0,X,Younger,coat,Dual,0
5,L2,German,Gehirn,1,SingleNaming,0,X,Younger,brain,Single,0
5,L2,German,Mantel,5,SingleNaming,0,X,Younger,coat,Single,0
5,L1,English,trophy,10,SingleNaming,0,X,Younger,trophy,Single,0
5,L2,German,Leiter,13,SingleNaming,0,X,Younger,ladder,Single,0
5,L2,German,Geschenk,17,SingleNaming,0,X,Younger,present,Single,0
5,L1,English,cake,20,SingleNaming,0,X,Younger,cake,Single,0
5,L1,English,present,22,SingleNaming,0,X,Younger,present,Single,0
5,L2,German,Tasse,2,switch,1,2426.2,Younger,cup,Dual,1
5,L1,English,horse,3,switch,1,917.5,Younger,horse,Dual,1
5,L1,English,eye,4,nonswitch,1,1345.5,Younger,eye,Dual,1
5,L1,English,suitcase,5,nonswitch,1,924.8,Younger,suitcase,Dual,1
5,L1,English,cake,8,switch,1,1146,Younger,cake,Dual,1
5,L2,German,Zähne,9,switch,1,1351.5,Younger,teeth,Dual,1
5,L1,English,candle,11,nonswitch,1,1092.4,Younger,candle,Dual,1
5,L1,English,toy,12,nonswitch,1,1418,Younger,toy,Dual,1
5,L1,English,teeth,13,nonswitch,1,1280.2,Younger,teeth,Dual,1
5,L1,English,cup,20,nonswitch,1,979.2,Younger,cup,Dual,1
5,L1,English,horse,26,nonswitch,1,736.2,Younger,horse,Dual,1
5,L2,German,Auge,32,nonswitch,1,2186.9,Younger,eye,Dual,1
5,L2,German,Tasse,33,nonswitch,1,2312.8,Younger,cup,Dual,1
5,L1,English,suitcase,34,switch,1,1686.4,Younger,suitcase,Dual,1
5,L2,German,Seife,35,switch,1,2059.9,Younger,soap,Dual,1
5,L2,German,Flugzeug,38,switch,1,1595.7,Younger,plane,Dual,1
5,L1,English,newspaper,44,nonswitch,1,1345.5,Younger,newspaper,Dual,1
5,L1,English,coat,45,nonswitch,1,1055.4,Younger,coat,Dual,1
5,L1,English,cake,46,nonswitch,1,953.8,Younger,cake,Dual,1
5,L2,German,Kerze,47,switch,1,1882.5,Younger,candle,Dual,1
5,L1,English,eye,50,switch,1,1299.2,Younger,eye,Dual,1
5,L1,English,newspaper,53,switch,1,1055,Younger,newspaper,Dual,1
5,L1,English,soap,54,nonswitch,1,1258.5,Younger,soap,Dual,1
5,L2,German,Erdbeere,57,nonswitch,1,875.3,Younger,strawberry,Dual,1
5,L1,English,knife,58,switch,1,1930.4,Younger,knife,Dual,1
5,L2,German,Pokal,59,switch,1,1867.7,Younger,trophy,Dual,1
5,L2,German,Spielzeug,60,nonswitch,1,1248.5,Younger,toy,Dual,1
5,L1,English,present,61,switch,1,1808.9,Younger,present,Dual,1
5,L2,German,Pferd,68,nonswitch,1,1497.8,Younger,horse,Dual,1
5,L1,English,plane,69,switch,1,2440.7,Younger,plane,Dual,1
5,L1,English,strawberry,76,switch,1,2092.6,Younger,strawberry,Dual,1
5,L1,English,broom,77,nonswitch,1,725.3,Younger,broom,Dual,1
5,L2,German,Erdbeere,78,switch,1,1146,Younger,strawberry,Dual,1
5,L2,German,Kuchen,79,nonswitch,1,2005.5,Younger,cake,Dual,1
5,L1,English,ladder,80,switch,1,1320.1,Younger,ladder,Dual,1
5,L1,English,present,84,nonswitch,1,1219.2,Younger,present,Dual,1
5,L1,English,teeth,85,nonswitch,1,1349.1,Younger,teeth,Dual,1
5,L1,English,strawberry,88,switch,1,1273,Younger,strawberry,Dual,1
5,L2,German,Geschenk,89,switch,1,768.9,Younger,present,Dual,1
5,L1,English,pen,90,switch,1,1555.8,Younger,pen,Dual,1
5,L1,English,toy,91,nonswitch,1,1170,Younger,toy,Dual,1
5,L1,English,coat,92,nonswitch,1,1262.9,Younger,coat,Dual,1
5,L1,English,suitcase,93,nonswitch,1,1055.2,Younger,suitcase,Dual,1
5,L2,German,Gehirn,94,switch,1,2505.1,Younger,brain,Dual,1
5,L1,English,eye,99,switch,1,1135.1,Younger,eye,Dual,1
5,L1,English,strawberry,106,nonswitch,1,1531.6,Younger,strawberry,Dual,1
5,L2,German,Zeitung,107,switch,1,2304.6,Younger,newspaper,Dual,1
5,L2,German,Zähne,111,switch,1,756.5,Younger,teeth,Dual,1
5,L2,German,Stift,112,nonswitch,1,2560.4,Younger,pen,Dual,1
5,L2,German,Erdbeere,115,switch,1,1410.8,Younger,strawberry,Dual,1
5,L1,English,candle,116,switch,1,1141.3,Younger,candle,Dual,1
5,L2,German,Koffer,119,nonswitch,1,2477.4,Younger,suitcase,Dual,1
5,L2,German,Gehirn,122,nonswitch,1,1537.7,Younger,brain,Dual,1
5,L1,English,knife,123,switch,1,1146,Younger,knife,Dual,1
5,L1,English,cake,124,nonswitch,1,1280,Younger,cake,Dual,1
5,L1,English,brain,125,nonswitch,1,1283.3,Younger,brain,Dual,1
5,L2,German,Tasse,128,nonswitch,1,1894.5,Younger,cup,Dual,1
5,L2,German,Pferd,129,nonswitch,1,1283.7,Younger,horse,Dual,1
5,L2,German,Auge,132,switch,1,1896.7,Younger,eye,Dual,1
5,L2,German,Kerze,135,switch,1,1918.5,Younger,candle,Dual,1
5,L2,German,Stift,136,nonswitch,1,1447,Younger,pen,Dual,1
5,L2,German,Leiter,137,nonswitch,1,1352.7,Younger,ladder,Dual,1
5,L1,English,toy,138,switch,1,1476.1,Younger,toy,Dual,1
5,L2,German,Koffer,139,switch,1,1949,Younger,suitcase,Dual,1
5,L2,German,Flugzeug,140,nonswitch,1,794.4,Younger,plane,Dual,1
5,L1,English,trophy,145,switch,1,2023.3,Younger,trophy,Dual,1
5,L2,German,Flugzeug,146,switch,1,1331,Younger,plane,Dual,1
5,L2,German,Messer,147,nonswitch,1,904.3,Younger,knife,Dual,1
5,L2,German,Kerze,148,nonswitch,1,914.6,Younger,candle,Dual,1
5,L2,German,Spielzeug,151,switch,1,1178.2,Younger,toy,Dual,1
5,L2,German,Geschenk,152,nonswitch,1,1767.5,Younger,present,Dual,1
5,L2,German,Zähne,153,nonswitch,1,1508.9,Younger,teeth,Dual,1
5,L1,English,coat,160,switch,1,2593.1,Younger,coat,Dual,1
5,L1,English,broom,1,SingleNaming,1,703.6,Younger,broom,Single,1
5,L1,English,ladder,2,SingleNaming,1,765.2,Younger,ladder,Single,1
5,L1,English,coat,3,SingleNaming,1,794.2,Younger,coat,Single,1
5,L2,German,Auge,3,SingleNaming,1,1418,Younger,eye,Single,1
5,L1,English,newspaper,4,SingleNaming,1,667.3,Younger,newspaper,Single,1
5,L1,English,suitcase,5,SingleNaming,1,855.9,Younger,suitcase,Single,1
5,L1,English,plane,6,SingleNaming,1,982.8,Younger,plane,Single,1
5,L2,German,Seife,6,SingleNaming,1,1526.8,Younger,soap,Single,1
5,L2,German,Spielzeug,7,SingleNaming,1,1190.7,Younger,toy,Single,1
5,L1,English,eye,8,SingleNaming,1,870.4,Younger,eye,Single,1
5,L2,German,Tasse,8,SingleNaming,1,1360,Younger,cup,Single,1
5,L1,English,present,9,SingleNaming,1,1574,Younger,present,Single,1
5,L2,German,Erdbeere,9,SingleNaming,1,1765.3,Younger,strawberry,Single,1
5,L2,German,Messer,10,SingleNaming,1,1586.3,Younger,knife,Single,1
5,L1,English,teeth,11,SingleNaming,1,961.1,Younger,teeth,Single,1
5,L2,German,Zähne,11,SingleNaming,1,1770.6,Younger,teeth,Single,1
5,L1,English,pen,12,SingleNaming,1,1174.9,Younger,pen,Single,1
5,L2,German,Kerze,12,SingleNaming,1,1433,Younger,candle,Single,1
5,L1,English,toy,13,SingleNaming,1,1214.9,Younger,toy,Single,1
5,L1,English,knife,14,SingleNaming,1,794.2,Younger,knife,Single,1
5,L2,German,Pokal,14,SingleNaming,1,1274.7,Younger,trophy,Single,1
5,L1,English,cup,15,SingleNaming,1,848.6,Younger,cup,Single,1
5,L2,German,Kuchen,15,SingleNaming,1,1749.5,Younger,cake,Single,1
5,L2,German,Zeitung,16,SingleNaming,1,993.6,Younger,newspaper,Single,1
5,L1,English,horse,16,SingleNaming,1,1138.8,Younger,horse,Single,1
5,L1,English,candle,17,SingleNaming,1,688.6,Younger,candle,Single,1
5,L1,English,brain,18,SingleNaming,1,699.9,Younger,brain,Single,1
5,L2,German,Stift,18,SingleNaming,1,906.7,Younger,pen,Single,1
5,L1,English,strawberry,19,SingleNaming,1,805.1,Younger,strawberry,Single,1
5,L2,German,Koffer,19,SingleNaming,1,2778,Younger,suitcase,Single,1
5,L2,German,Flugzeug,20,SingleNaming,1,1441.7,Younger,plane,Single,1
5,L1,English,knife,21,SingleNaming,1,996.1,Younger,knife,Single,1
5,L2,German,Tasse,21,SingleNaming,1,1900.4,Younger,cup,Single,1
5,L2,German,Besen,22,SingleNaming,1,2618.5,Younger,broom,Single,1
5,L2,German,Flugzeug,23,SingleNaming,1,924.8,Younger,plane,Single,1
5,L1,English,horse,23,SingleNaming,1,1364.2,Younger,horse,Single,1
5,L2,German,Pferd,24,SingleNaming,1,743.5,Younger,horse,Single,1
5,L1,English,teeth,24,SingleNaming,1,2000.6,Younger,teeth,Single,1
5,L2,German,Kuchen,25,SingleNaming,1,935.7,Younger,cake,Single,1
5,L1,English,newspaper,25,SingleNaming,1,1135.1,Younger,newspaper,Single,1
5,L1,English,candle,26,SingleNaming,1,557.3,Younger,candle,Single,1
5,L2,German,Geschenk,26,SingleNaming,1,2591.6,Younger,present,Single,1
5,L1,English,brain,27,SingleNaming,1,673.4,Younger,brain,Single,1
5,L2,German,Zeitung,27,SingleNaming,1,2181.9,Younger,newspaper,Single,1
5,L1,English,plane,28,SingleNaming,1,723.1,Younger,plane,Single,1
5,L2,German,Koffer,28,SingleNaming,1,1832,Younger,suitcase,Single,1
5,L1,English,suitcase,29,SingleNaming,1,472.8,Younger,suitcase,Single,1
5,L2,German,Zähne,29,SingleNaming,1,845,Younger,teeth,Single,1
5,L1,English,trophy,30,SingleNaming,1,746.6,Younger,trophy,Single,1
5,L2,German,Mantel,30,SingleNaming,1,1158.8,Younger,coat,Single,1
5,L1,English,pen,31,SingleNaming,1,732.7,Younger,pen,Single,1
5,L2,German,Stift,31,SingleNaming,1,1100,Younger,pen,Single,1
5,L1,English,strawberry,32,SingleNaming,1,588.8,Younger,strawberry,Single,1
5,L2,German,Seife,32,SingleNaming,1,2662.4,Younger,soap,Single,1
5,L1,English,ladder,33,SingleNaming,1,682.4,Younger,ladder,Single,1
5,L2,German,Gehirn,33,SingleNaming,1,1271.1,Younger,brain,Single,1
5,L1,English,cake,34,SingleNaming,1,550.1,Younger,cake,Single,1
5,L2,German,Messer,34,SingleNaming,1,1836.9,Younger,knife,Single,1
5,L1,English,coat,35,SingleNaming,1,1102.1,Younger,coat,Single,1
5,L2,German,Kerze,35,SingleNaming,1,1146.2,Younger,candle,Single,1
5,L2,German,Leiter,36,SingleNaming,1,823.5,Younger,ladder,Single,1
5,L1,English,toy,36,SingleNaming,1,868.3,Younger,toy,Single,1
5,L2,German,Erdbeere,37,SingleNaming,1,906.7,Younger,strawberry,Single,1
5,L1,English,broom,37,SingleNaming,1,1759.4,Younger,broom,Single,1
5,L2,German,Auge,38,SingleNaming,1,862.8,Younger,eye,Single,1
5,L1,English,eye,38,SingleNaming,1,1071,Younger,eye,Single,1
5,L2,German,Pokal,39,SingleNaming,1,848.6,Younger,trophy,Single,1
5,L1,English,cup,40,SingleNaming,1,707.7,Younger,cup,Single,1
5,L2,German,Spielzeug,40,SingleNaming,1,1624.7,Younger,toy,Single,1
5,L1,English,soap,10,switch,2,1115.2,Younger,soap,Dual,0
5,L1,English,soap,7,SingleNaming,2,1385.4,Younger,soap,Single,0
5,L1,English,soap,39,SingleNaming,2,1059,Younger,soap,Single,0
5,L2,German,Leiter,6,switch,3,1150.6,Younger,ladder,Dual,0
5,L1,English,brain,16,switch,3,1198.4,Younger,brain,Dual,0
5,L2,German,Messer,27,switch,3,714.5,Younger,knife,Dual,0
5,L1,English,teeth,29,switch,3,1876.4,Younger,teeth,Dual,0
5,L1,English,present,36,switch,3,1791.6,Younger,present,Dual,0
5,L2,German,Besen,39,nonswitch,3,1505.1,Younger,broom,Dual,0
5,L2,German,Koffer,42,nonswitch,3,2056.3,Younger,suitcase,Dual,0
5,L2,German,Pokal,72,nonswitch,3,1700.9,Younger,trophy,Dual,0
5,L2,German,Besen,86,switch,3,2520.5,Younger,broom,Dual,0
5,L2,German,Besen,95,nonswitch,3,1711,Younger,broom,Dual,0
5,L1,English,cup,97,nonswitch,3,2556.8,Younger,cup,Dual,0
5,L2,German,Pokal,102,nonswitch,3,1571.1,Younger,trophy,Dual,0
5,L1,English,newspaper,104,nonswitch,3,2154.2,Younger,newspaper,Dual,0
5,L1,English,teeth,109,switch,3,1461.5,Younger,teeth,Dual,0
5,L1,English,horse,117,nonswitch,3,991.8,Younger,horse,Dual,0
5,L1,English,cake,130,switch,3,1856.2,Younger,cake,Dual,0
5,L1,English,broom,133,switch,3,2538.7,Younger,broom,Dual,0
5,L1,English,ladder,141,switch,3,1806,Younger,ladder,Dual,0
5,L1,English,newspaper,149,switch,3,2554.2,Younger,newspaper,Dual,0
5,L1,English,plane,156,switch,3,944.6,Younger,plane,Dual,0
5,L1,English,pen,157,nonswitch,3,760.1,Younger,pen,Dual,0
5,L2,German,Pferd,2,SingleNaming,3,2723.6,Younger,horse,Single,0
5,L2,German,Besen,4,SingleNaming,3,1196.5,Younger,broom,Single,0
5,L2,German,Kuchen,21,switch,5,1236.6,Younger,cake,Dual,0
5,L1,English,plane,51,nonswitch,5,1509.7,Younger,plane,Dual,0
5,L1,English,pen,1,X,7,1181.3,Younger,pen,Dual,1
5,L2,German,Gehirn,7,nonswitch,7,2404.5,Younger,brain,Dual,1
5,L2,German,Zähne,15,nonswitch,7,1595.7,Younger,teeth,Dual,1
5,L1,English,knife,17,nonswitch,7,1179,Younger,knife,Dual,1
5,L1,English,toy,19,switch,7,1621.1,Younger,toy,Dual,1
5,L1,English,trophy,23,switch,7,1030,Younger,trophy,Dual,1
5,L1,English,ladder,25,nonswitch,7,1486.9,Younger,ladder,Dual,1
5,L2,German,Kerze,28,nonswitch,7,1146,Younger,candle,Dual,1
5,L2,German,Besen,31,switch,7,2223.1,Younger,broom,Dual,1
5,L1,English,strawberry,37,nonswitch,7,1251.2,Younger,strawberry,Dual,1
5,L2,German,Pferd,41,X,7,1159.5,Younger,horse,Dual,1
5,L1,English,cup,43,switch,7,1936.6,Younger,cup,Dual,1
5,L2,German,Geschenk,49,nonswitch,7,1073.5,Younger,present,Dual,1
5,L2,German,Auge,52,switch,7,1065.9,Younger,eye,Dual,1
5,L2,German,Flugzeug,56,nonswitch,7,2694.6,Younger,plane,Dual,1
5,L2,German,Spielzeug,63,nonswitch,7,1214.1,Younger,toy,Dual,1
5,L1,English,candle,65,switch,7,1309.2,Younger,candle,Dual,1
5,L2,German,Seife,67,nonswitch,7,2288.4,Younger,soap,Dual,1
5,L2,German,Geschenk,71,switch,7,1309.2,Younger,present,Dual,1
5,L2,German,Messer,73,nonswitch,7,1896.7,Younger,knife,Dual,1
5,L2,German,Zeitung,75,switch,7,2361,Younger,newspaper,Dual,1
5,L1,English,knife,81,X,7,830.5,Younger,knife,Dual,1
5,L1,English,pen,83,switch,7,1247.6,Younger,pen,Dual,1
5,L2,German,Kuchen,87,nonswitch,7,1011.8,Younger,cake,Dual,1
5,L2,German,Spielzeug,98,switch,7,1989.6,Younger,toy,Dual,1
5,L1,English,brain,103,switch,7,1887.2,Younger,brain,Dual,1
5,L1,English,eye,105,nonswitch,7,1360,Younger,eye,Dual,1
5,L1,English,ladder,110,nonswitch,7,1497.4,Younger,ladder,Dual,1
5,L1,English,horse,114,switch,7,1758.9,Younger,horse,Dual,1
5,L2,German,Messer,118,switch,7,1818.6,Younger,knife,Dual,1
5,L2,German,Kuchen,121,X,7,884.9,Younger,cake,Dual,1
5,L2,German,Pokal,127,switch,7,1769.8,Younger,trophy,Dual,1
5,L1,English,candle,131,nonswitch,7,1541.3,Younger,candle,Dual,1
5,L1,English,trophy,134,nonswitch,7,1450.3,Younger,trophy,Dual,1
5,L2,German,Mantel,144,nonswitch,7,1994.7,Younger,coat,Dual,1
5,L1,English,plane,150,nonswitch,7,1098.9,Younger,plane,Dual,1
5,L2,German,Pferd,155,switch,7,1374.5,Younger,horse,Dual,1
5,L2,German,Auge,159,nonswitch,7,729,Younger,eye,Dual,1
6,L2,French,couteau,21,SingleNaming,0,X,Younger,knife,Single,0
6,L2,French,couteau,2,nonswitch,1,2068.9,Younger,knife,Dual,1
6,L1,English,coat,3,switch,1,1340.6,Younger,coat,Dual,1
6,L1,English,trophy,4,nonswitch,1,1058.5,Younger,trophy,Dual,1
6,L1,English,candle,5,nonswitch,1,1479.7,Younger,candle,Dual,1
6,L2,French,jouet,6,switch,1,1175,Younger,toy,Dual,1
6,L2,French,avion,7,nonswitch,1,1088,Younger,plane,Dual,1
6,L1,English,knife,8,switch,1,1102,Younger,knife,Dual,1
6,L2,French,tasse,9,switch,1,1310.6,Younger,cup,Dual,1
6,L2,French,gateau,10,nonswitch,1,1039.8,Younger,cake,Dual,1
6,L1,English,teeth,11,switch,1,1037.2,Younger,teeth,Dual,1
6,L2,French,échelle,12,switch,1,993.9,Younger,ladder,Dual,1
6,L2,French,journal,13,nonswitch,1,1157.4,Younger,newspaper,Dual,1
6,L1,English,candle,14,switch,1,647.2,Younger,candle,Dual,1
6,L1,English,brain,15,nonswitch,1,1334.6,Younger,brain,Dual,1
6,L2,French,gateau,16,switch,1,1295.1,Younger,cake,Dual,1
6,L2,French,dents,17,nonswitch,1,1005.6,Younger,teeth,Dual,1
6,L2,French,stylo,18,nonswitch,1,899.4,Younger,pen,Dual,1
6,L1,English,cup,19,switch,1,910.3,Younger,cup,Dual,1
6,L1,English,knife,20,nonswitch,1,1821.6,Younger,knife,Dual,1
6,L1,English,cake,21,nonswitch,1,1114.2,Younger,cake,Dual,1
6,L2,French,cerveau,22,switch,1,1022.7,Younger,brain,Dual,1
6,L1,English,suitcase,23,switch,1,1333.2,Younger,suitcase,Dual,1
6,L1,English,teeth,24,nonswitch,1,1129.7,Younger,teeth,Dual,1
6,L1,English,cup,25,nonswitch,1,1054.8,Younger,cup,Dual,1
6,L1,English,strawberry,26,nonswitch,1,1016,Younger,strawberry,Dual,1
6,L2,French,stylo,27,switch,1,892.2,Younger,pen,Dual,1
6,L2,French,savon,28,nonswitch,1,928.8,Younger,soap,Dual,1
6,L1,English,ladder,29,switch,1,1189.5,Younger,ladder,Dual,1
6,L1,English,soap,30,nonswitch,1,1036.1,Younger,soap,Dual,1
6,L2,French,fraise,31,switch,1,1078.9,Younger,strawberry,Dual,1
6,L2,French,tasse,32,nonswitch,1,1083.4,Younger,cup,Dual,1
6,L1,English,pen,33,switch,1,1563.1,Younger,pen,Dual,1
6,L2,French,valise,34,switch,1,1036.9,Younger,suitcase,Dual,1
6,L1,English,soap,35,switch,1,1090.7,Younger,soap,Dual,1
6,L1,English,horse,36,nonswitch,1,1454.4,Younger,horse,Dual,1
6,L1,English,toy,37,nonswitch,1,1257.5,Younger,toy,Dual,1
6,L2,French,balai,38,switch,1,1915.5,Younger,broom,Dual,1
6,L2,French,cheval,39,nonswitch,1,1167.5,Younger,horse,Dual,1
6,L2,French,couteau,40,nonswitch,1,1055.3,Younger,knife,Dual,1
6,L1,English,coat,42,nonswitch,1,1597.7,Younger,coat,Dual,1
6,L2,French,cheval,43,switch,1,889.5,Younger,horse,Dual,1
6,L1,English,plane,44,switch,1,1128.1,Younger,plane,Dual,1
6,L1,English,eye,45,nonswitch,1,970,Younger,eye,Dual,1
6,L1,English,pen,46,nonswitch,1,1004.1,Younger,pen,Dual,1
6,L2,French,savon,47,switch,1,997.8,Younger,soap,Dual,1
6,L2,French,bougie,48,nonswitch,1,1142.4,Younger,candle,Dual,1
6,L1,English,horse,49,switch,1,1007.2,Younger,horse,Dual,1
6,L2,French,cadeau,50,switch,1,1391.4,Younger,present,Dual,1
6,L2,French,coupe,51,nonswitch,1,1472.4,Younger,trophy,Dual,1
6,L1,English,newspaper,54,nonswitch,1,1160.5,Younger,newspaper,Dual,1
6,L2,French,bougie,55,switch,1,1034.6,Younger,candle,Dual,1
6,L2,French,fraise,56,nonswitch,1,1276.6,Younger,strawberry,Dual,1
6,L1,English,present,57,switch,1,1178.7,Younger,present,Dual,1
6,L2,French,avion,58,switch,1,826.9,Younger,plane,Dual,1
6,L1,English,brain,59,switch,1,1351,Younger,brain,Dual,1
6,L1,English,ladder,60,nonswitch,1,1228.5,Younger,ladder,Dual,1
6,L2,French,manteau,61,switch,1,1092.8,Younger,coat,Dual,1
6,L2,French,oeil,62,nonswitch,1,1056.9,Younger,eye,Dual,1
6,L2,French,balai,63,nonswitch,1,1247.7,Younger,broom,Dual,1
6,L2,French,cerveau,64,nonswitch,1,1117.3,Younger,brain,Dual,1
6,L1,English,toy,65,switch,1,1441,Younger,toy,Dual,1
6,L2,French,dents,66,switch,1,1133.6,Younger,teeth,Dual,1
6,L2,French,cadeau,67,nonswitch,1,1044.5,Younger,present,Dual,1
6,L2,French,cerveau,68,nonswitch,1,889,Younger,brain,Dual,1
6,L1,English,broom,69,switch,1,1288.6,Younger,broom,Dual,1
6,L1,English,present,70,nonswitch,1,1055.4,Younger,present,Dual,1
6,L2,French,coupe,71,switch,1,1169.2,Younger,trophy,Dual,1
6,L1,English,newspaper,72,switch,1,1005.6,Younger,newspaper,Dual,1
6,L1,English,suitcase,73,nonswitch,1,979,Younger,suitcase,Dual,1
6,L2,French,couteau,74,switch,1,1167.8,Younger,knife,Dual,1
6,L2,French,manteau,75,nonswitch,1,1177.1,Younger,coat,Dual,1
6,L1,English,eye,76,switch,1,973.2,Younger,eye,Dual,1
6,L1,English,broom,77,nonswitch,1,1509.5,Younger,broom,Dual,1
6,L2,French,journal,78,switch,1,1084.4,Younger,newspaper,Dual,1
6,L2,French,échelle,79,nonswitch,1,1276.6,Younger,ladder,Dual,1
6,L1,English,trophy,80,switch,1,1055.4,Younger,trophy,Dual,1
6,L2,French,journal,82,nonswitch,1,1109.8,Younger,newspaper,Dual,1
6,L1,English,suitcase,83,switch,1,1013.7,Younger,suitcase,Dual,1
6,L1,English,coat,84,nonswitch,1,1419.3,Younger,coat,Dual,1
6,L1,English,cup,85,nonswitch,1,1258.5,Younger,cup,Dual,1
6,L2,French,stylo,86,switch,1,821.3,Younger,pen,Dual,1
6,L2,French,savon,87,nonswitch,1,877.7,Younger,soap,Dual,1
6,L1,English,broom,88,switch,1,884.8,Younger,broom,Dual,1
6,L2,French,dents,89,switch,1,984.4,Younger,teeth,Dual,1
6,L2,French,manteau,90,nonswitch,1,1303.7,Younger,coat,Dual,1
6,L1,English,pen,91,switch,1,1735.5,Younger,pen,Dual,1
6,L2,French,tasse,92,switch,1,1140.4,Younger,cup,Dual,1
6,L2,French,jouet,93,nonswitch,1,1057,Younger,toy,Dual,1
6,L2,French,coupe,96,switch,1,975.6,Younger,trophy,Dual,1
6,L2,French,valise,97,nonswitch,1,1207,Younger,suitcase,Dual,1
6,L2,French,cheval,98,nonswitch,1,1277.5,Younger,horse,Dual,1
6,L1,English,present,99,switch,1,1452.1,Younger,present,Dual,1
6,L1,English,ladder,100,nonswitch,1,1304.9,Younger,ladder,Dual,1
6,L1,English,strawberry,101,nonswitch,1,1185.9,Younger,strawberry,Dual,1
6,L2,French,échelle,102,switch,1,1167.2,Younger,ladder,Dual,1
6,L1,English,coat,103,switch,1,1176.3,Younger,coat,Dual,1
6,L1,English,plane,104,nonswitch,1,1147.7,Younger,plane,Dual,1
6,L1,English,eye,105,nonswitch,1,1327.3,Younger,eye,Dual,1
6,L1,English,candle,106,nonswitch,1,1914.3,Younger,candle,Dual,1
6,L2,French,manteau,107,switch,1,1161.1,Younger,coat,Dual,1
6,L2,French,valise,108,nonswitch,1,1041.6,Younger,suitcase,Dual,1
6,L1,English,trophy,109,switch,1,989.7,Younger,trophy,Dual,1
6,L1,English,newspaper,110,nonswitch,1,1058.7,Younger,newspaper,Dual,1
6,L2,French,cadeau,111,switch,1,1201.6,Younger,present,Dual,1
6,L2,French,coupe,112,nonswitch,1,1066.3,Younger,trophy,Dual,1
6,L1,English,knife,113,switch,1,981.8,Younger,knife,Dual,1
6,L2,French,journal,114,switch,1,970.7,Younger,newspaper,Dual,1
6,L1,English,ladder,115,switch,1,1207.7,Younger,ladder,Dual,1
6,L1,English,brain,116,nonswitch,1,1019.1,Younger,brain,Dual,1
6,L1,English,cake,117,nonswitch,1,1225,Younger,cake,Dual,1
6,L2,French,valise,118,switch,1,982.6,Younger,suitcase,Dual,1
6,L2,French,balai,119,nonswitch,1,1976.2,Younger,broom,Dual,1
6,L2,French,gateau,120,nonswitch,1,966,Younger,cake,Dual,1
6,L1,English,broom,122,nonswitch,1,1013.9,Younger,broom,Dual,1
6,L2,French,fraise,123,switch,1,942.9,Younger,strawberry,Dual,1
6,L1,English,cup,124,switch,1,1106.2,Younger,cup,Dual,1
6,L1,English,pen,125,nonswitch,1,1090.9,Younger,pen,Dual,1
6,L1,English,toy,126,nonswitch,1,1216.5,Younger,toy,Dual,1
6,L2,French,savon,127,switch,1,884.9,Younger,soap,Dual,1
6,L2,French,fraise,128,nonswitch,1,1253,Younger,strawberry,Dual,1
6,L1,English,toy,129,switch,1,1058.7,Younger,toy,Dual,1
6,L2,French,avion,130,switch,1,947.4,Younger,plane,Dual,1
6,L2,French,jouet,131,nonswitch,1,1633.9,Younger,toy,Dual,1
6,L1,English,soap,132,switch,1,1388.7,Younger,soap,Dual,1
6,L1,English,knife,133,nonswitch,1,1616,Younger,knife,Dual,1
6,L1,English,trophy,134,nonswitch,1,1615.8,Younger,trophy,Dual,1
6,L2,French,gateau,135,switch,1,1150.9,Younger,cake,Dual,1
6,L2,French,cadeau,136,nonswitch,1,1276.8,Younger,present,Dual,1
6,L1,English,teeth,137,switch,1,1227.3,Younger,teeth,Dual,1
6,L2,French,cheval,138,switch,1,1035.4,Younger,horse,Dual,1
6,L1,English,newspaper,139,switch,1,914,Younger,newspaper,Dual,1
6,L1,English,horse,140,nonswitch,1,1130.4,Younger,horse,Dual,1
6,L2,French,couteau,141,switch,1,1145.3,Younger,knife,Dual,1
6,L2,French,échelle,142,nonswitch,1,986.4,Younger,ladder,Dual,1
6,L2,French,stylo,143,nonswitch,1,783.4,Younger,pen,Dual,1
6,L2,French,tasse,144,nonswitch,1,1055.6,Younger,cup,Dual,1
6,L1,English,strawberry,145,switch,1,1191.8,Younger,strawberry,Dual,1
6,L2,French,cerveau,146,switch,1,1079,Younger,brain,Dual,1
6,L2,French,avion,147,nonswitch,1,913.4,Younger,plane,Dual,1
6,L2,French,bougie,148,nonswitch,1,1096.1,Younger,candle,Dual,1
6,L1,English,horse,149,switch,1,1156.1,Younger,horse,Dual,1
6,L1,English,soap,150,nonswitch,1,1184.2,Younger,soap,Dual,1
6,L2,French,bougie,151,switch,1,1039.6,Younger,candle,Dual,1
6,L1,English,cake,152,switch,1,1179.8,Younger,cake,Dual,1
6,L1,English,suitcase,153,nonswitch,1,1147.6,Younger,suitcase,Dual,1
6,L2,French,jouet,154,switch,1,1062.6,Younger,toy,Dual,1
6,L2,French,oeil,155,nonswitch,1,1113.3,Younger,eye,Dual,1
6,L1,English,plane,156,switch,1,1031.9,Younger,plane,Dual,1
6,L1,English,present,157,nonswitch,1,1315.7,Younger,present,Dual,1
6,L2,French,balai,158,switch,1,1468.8,Younger,broom,Dual,1
6,L2,French,dents,159,nonswitch,1,1026.5,Younger,teeth,Dual,1
6,L1,English,eye,160,switch,1,979.5,Younger,eye,Dual,1
6,L2,French,dents,1,SingleNaming,1,996.7,Younger,teeth,Single,1
6,L1,English,broom,1,SingleNaming,1,1037.4,Younger,broom,Single,1
6,L2,French,fraise,2,SingleNaming,1,934.2,Younger,strawberry,Single,1
6,L1,English,candle,2,SingleNaming,1,1202.1,Younger,candle,Single,1
6,L2,French,tasse,3,SingleNaming,1,865.2,Younger,cup,Single,1
6,L1,English,suitcase,3,SingleNaming,1,867.3,Younger,suitcase,Single,1
6,L2,French,balai,4,SingleNaming,1,888.5,Younger,broom,Single,1
6,L1,English,horse,4,SingleNaming,1,953.8,Younger,horse,Single,1
6,L1,English,soap,5,SingleNaming,1,963.1,Younger,soap,Single,1
6,L2,French,oeil,5,SingleNaming,1,1027.7,Younger,eye,Single,1
6,L2,French,cadeau,6,SingleNaming,1,906.2,Younger,present,Single,1
6,L1,English,pen,6,SingleNaming,1,994.6,Younger,pen,Single,1
6,L2,French,valise,7,SingleNaming,1,1016.3,Younger,suitcase,Single,1
6,L1,English,newspaper,7,SingleNaming,1,1034.4,Younger,newspaper,Single,1
6,L2,French,bougie,8,SingleNaming,1,980.7,Younger,candle,Single,1
6,L1,English,cup,8,SingleNaming,1,1141.4,Younger,cup,Single,1
6,L2,French,stylo,9,SingleNaming,1,760.4,Younger,pen,Single,1
6,L1,English,knife,9,SingleNaming,1,1176.7,Younger,knife,Single,1
6,L2,French,jouet,10,SingleNaming,1,924.7,Younger,toy,Single,1
6,L1,English,coat,10,SingleNaming,1,1096.5,Younger,coat,Single,1
6,L2,French,cheval,11,SingleNaming,1,905.6,Younger,horse,Single,1
6,L1,English,strawberry,11,SingleNaming,1,1094,Younger,strawberry,Single,1
6,L1,English,trophy,12,SingleNaming,1,867.3,Younger,trophy,Single,1
6,L2,French,manteau,12,SingleNaming,1,915,Younger,coat,Single,1
6,L2,French,avion,13,SingleNaming,1,897.3,Younger,plane,Single,1
6,L1,English,eye,13,SingleNaming,1,1422.1,Younger,eye,Single,1
6,L1,English,cake,14,SingleNaming,1,888.5,Younger,cake,Single,1
6,L2,French,gateau,14,SingleNaming,1,924.6,Younger,cake,Single,1
6,L2,French,échelle,15,SingleNaming,1,939.3,Younger,ladder,Single,1
6,L1,English,teeth,15,SingleNaming,1,1135.1,Younger,teeth,Single,1
6,L1,English,present,16,SingleNaming,1,1157,Younger,present,Single,1
6,L2,French,couteau,16,SingleNaming,1,1289.2,Younger,knife,Single,1
6,L2,French,savon,17,SingleNaming,1,916.1,Younger,soap,Single,1
6,L1,English,brain,17,SingleNaming,1,1685.5,Younger,brain,Single,1
6,L2,French,journal,18,SingleNaming,1,1043.6,Younger,newspaper,Single,1
6,L1,English,toy,18,SingleNaming,1,1631.3,Younger,toy,Single,1
6,L2,French,cerveau,19,SingleNaming,1,987.5,Younger,brain,Single,1
6,L1,English,ladder,19,SingleNaming,1,1497.8,Younger,ladder,Single,1
6,L2,French,coupe,20,SingleNaming,1,1055.1,Younger,trophy,Single,1
6,L1,English,plane,20,SingleNaming,1,1414.3,Younger,plane,Single,1
6,L1,English,teeth,21,SingleNaming,1,917.5,Younger,teeth,Single,1
6,L2,French,fraise,22,SingleNaming,1,983.5,Younger,strawberry,Single,1
6,L1,English,coat,22,SingleNaming,1,1071.8,Younger,coat,Single,1
6,L1,English,cake,23,SingleNaming,1,1034.3,Younger,cake,Single,1
6,L2,French,tasse,23,SingleNaming,1,1100.5,Younger,cup,Single,1
6,L1,English,toy,24,SingleNaming,1,879,Younger,toy,Single,1
6,L2,French,cerveau,24,SingleNaming,1,1267.4,Younger,brain,Single,1
6,L2,French,oeil,25,SingleNaming,1,1222.2,Younger,eye,Single,1
6,L1,English,strawberry,25,SingleNaming,1,1225.5,Younger,strawberry,Single,1
6,L2,French,échelle,26,SingleNaming,1,1034.1,Younger,ladder,Single,1
6,L1,English,plane,26,SingleNaming,1,1087.7,Younger,plane,Single,1
6,L1,English,knife,27,SingleNaming,1,900.3,Younger,knife,Single,1
6,L2,French,valise,27,SingleNaming,1,1427.7,Younger,suitcase,Single,1
6,L1,English,suitcase,28,SingleNaming,1,1000.6,Younger,suitcase,Single,1
6,L2,French,dents,28,SingleNaming,1,1090.1,Younger,teeth,Single,1
6,L1,English,trophy,29,SingleNaming,1,867.1,Younger,trophy,Single,1
6,L2,French,stylo,29,SingleNaming,1,1123.5,Younger,pen,Single,1
6,L1,English,ladder,30,SingleNaming,1,1007.9,Younger,ladder,Single,1
6,L2,French,jouet,30,SingleNaming,1,1163,Younger,toy,Single,1
6,L1,English,eye,31,SingleNaming,1,858.1,Younger,eye,Single,1
6,L2,French,cheval,31,SingleNaming,1,865.2,Younger,horse,Single,1
6,L1,English,newspaper,32,SingleNaming,1,885.3,Younger,newspaper,Single,1
6,L2,French,manteau,32,SingleNaming,1,923.5,Younger,coat,Single,1
6,L1,English,candle,33,SingleNaming,1,938.9,Younger,candle,Single,1
6,L2,French,avion,33,SingleNaming,1,977.8,Younger,plane,Single,1
6,L2,French,gateau,34,SingleNaming,1,868.1,Younger,cake,Single,1
6,L1,English,present,34,SingleNaming,1,966.4,Younger,present,Single,1
6,L1,English,horse,35,SingleNaming,1,1019.1,Younger,horse,Single,1
6,L2,French,bougie,35,SingleNaming,1,1675.3,Younger,candle,Single,1
6,L2,French,balai,36,SingleNaming,1,861.2,Younger,broom,Single,1
6,L1,English,brain,36,SingleNaming,1,979.2,Younger,brain,Single,1
6,L1,English,cup,37,SingleNaming,1,828.2,Younger,cup,Single,1
6,L2,French,savon,37,SingleNaming,1,983.8,Younger,soap,Single,1
6,L1,English,pen,38,SingleNaming,1,805.3,Younger,pen,Single,1
6,L2,French,journal,38,SingleNaming,1,1039.8,Younger,newspaper,Single,1
6,L1,English,soap,39,SingleNaming,1,1102.5,Younger,soap,Single,1
6,L2,French,cadeau,39,SingleNaming,1,1200.8,Younger,present,Single,1
6,L1,English,broom,40,SingleNaming,1,914.5,Younger,broom,Single,1
6,L2,French,coupe,40,SingleNaming,1,1664.6,Younger,trophy,Single,1
6,L1,English,brain,94,switch,3,1055.4,Younger,brain,Dual,0
6,L1,English,strawberry,52,switch,5,943.4,Younger,strawberry,Dual,0
6,L2,French,oeil,1,X,7,1327.7,Younger,eye,Dual,1
6,L1,English,cake,41,X,7,1613.9,Younger,cake,Dual,1
6,L1,English,plane,53,nonswitch,7,1302,Younger,plane,Dual,1
6,L2,French,oeil,81,X,7,1037.2,Younger,eye,Dual,1
6,L1,English,teeth,95,nonswitch,7,1487.3,Younger,teeth,Dual,1
6,L1,English,candle,121,X,7,1938.4,Younger,candle,Dual,1
7,L2,French,couteau,27,switch,0,X,Younger,knife,Dual,0
7,L2,French,balai,31,switch,0,X,Younger,broom,Dual,0
7,L2,French,valise,42,nonswitch,0,X,Younger,suitcase,Dual,0
7,L2,French,échelle,64,nonswitch,0,X,Younger,ladder,Dual,0
7,L2,French,couteau,73,nonswitch,0,X,Younger,knife,Dual,0
7,L2,French,jouet,98,switch,0,X,Younger,toy,Dual,0
7,L2,French,cheval,129,nonswitch,0,X,Younger,horse,Dual,0
7,L2,French,échelle,13,SingleNaming,0,X,Younger,ladder,Single,0
7,L2,French,coupe,14,SingleNaming,0,X,Younger,trophy,Single,0
7,L2,French,tasse,2,switch,1,940.8,Younger,cup,Dual,1
7,L1,English,horse,3,switch,1,866.1,Younger,horse,Dual,1
7,L1,English,eye,4,nonswitch,1,918.4,Younger,eye,Dual,1
7,L1,English,suitcase,5,nonswitch,1,1660.5,Younger,suitcase,Dual,1
7,L2,French,échelle,6,switch,1,2130.9,Younger,ladder,Dual,1
7,L2,French,cerveau,7,nonswitch,1,1388.8,Younger,brain,Dual,1
7,L1,English,cake,8,switch,1,1095.9,Younger,cake,Dual,1
7,L2,French,dents,9,switch,1,1504.5,Younger,teeth,Dual,1
7,L1,English,soap,10,switch,1,1129,Younger,soap,Dual,1
7,L1,English,candle,11,nonswitch,1,1194.9,Younger,candle,Dual,1
7,L1,English,toy,12,nonswitch,1,1109.1,Younger,toy,Dual,1
7,L1,English,teeth,13,nonswitch,1,1198.4,Younger,teeth,Dual,1
7,L2,French,cerveau,14,switch,1,881.1,Younger,brain,Dual,1
7,L2,French,dents,15,nonswitch,1,1028.5,Younger,teeth,Dual,1
7,L1,English,brain,16,switch,1,1233.7,Younger,brain,Dual,1
7,L1,English,knife,17,nonswitch,1,1399.3,Younger,knife,Dual,1
7,L2,French,stylo,18,switch,1,1418.7,Younger,pen,Dual,1
7,L1,English,toy,19,switch,1,1082.5,Younger,toy,Dual,1
7,L1,English,cup,20,nonswitch,1,1093.9,Younger,cup,Dual,1
7,L2,French,gateau,21,switch,1,1041.6,Younger,cake,Dual,1
7,L2,French,journal,22,nonswitch,1,1052.8,Younger,newspaper,Dual,1
7,L1,English,trophy,23,switch,1,1176,Younger,trophy,Dual,1
7,L1,English,present,24,nonswitch,1,1322.5,Younger,present,Dual,1
7,L1,English,ladder,25,nonswitch,1,1251.1,Younger,ladder,Dual,1
7,L1,English,horse,26,nonswitch,1,1104.4,Younger,horse,Dual,1
7,L1,English,teeth,29,switch,1,1103.3,Younger,teeth,Dual,1
7,L1,English,trophy,30,nonswitch,1,2807.5,Younger,trophy,Dual,1
7,L2,French,tasse,33,nonswitch,1,1422.4,Younger,cup,Dual,1
7,L1,English,suitcase,34,switch,1,1706.1,Younger,suitcase,Dual,1
7,L2,French,savon,35,switch,1,1437.3,Younger,soap,Dual,1
7,L1,English,present,36,switch,1,1097.6,Younger,present,Dual,1
7,L1,English,strawberry,37,nonswitch,1,1200.1,Younger,strawberry,Dual,1
7,L2,French,avion,38,switch,1,1088.6,Younger,plane,Dual,1
7,L2,French,balai,39,nonswitch,1,1349.4,Younger,broom,Dual,1
7,L1,English,coat,40,switch,1,1341.2,Younger,coat,Dual,1
7,L1,English,newspaper,44,nonswitch,1,1356.3,Younger,newspaper,Dual,1
7,L1,English,coat,45,nonswitch,1,832.7,Younger,coat,Dual,1
7,L1,English,cake,46,nonswitch,1,791.6,Younger,cake,Dual,1
7,L2,French,bougie,47,switch,1,1225.8,Younger,candle,Dual,1
7,L2,French,manteau,48,nonswitch,1,1960.6,Younger,coat,Dual,1
7,L2,French,cadeau,49,nonswitch,1,2929.5,Younger,present,Dual,1
7,L1,English,eye,50,switch,1,1332.8,Younger,eye,Dual,1
7,L1,English,plane,51,nonswitch,1,1007,Younger,plane,Dual,1
7,L2,French,oeil,52,switch,1,966.9,Younger,eye,Dual,1
7,L1,English,newspaper,53,switch,1,1261.9,Younger,newspaper,Dual,1
7,L1,English,soap,54,nonswitch,1,1475,Younger,soap,Dual,1
7,L2,French,manteau,55,switch,1,833.8,Younger,coat,Dual,1
7,L2,French,avion,56,nonswitch,1,828.8,Younger,plane,Dual,1
7,L2,French,fraise,57,nonswitch,1,1407.1,Younger,strawberry,Dual,1
7,L1,English,knife,58,switch,1,1340.3,Younger,knife,Dual,1
7,L2,French,coupe,59,switch,1,1227.3,Younger,trophy,Dual,1
7,L2,French,jouet,60,nonswitch,1,1956.3,Younger,toy,Dual,1
7,L1,English,present,61,switch,1,990.1,Younger,present,Dual,1
7,L2,French,stylo,62,switch,1,689.8,Younger,pen,Dual,1
7,L2,French,jouet,63,nonswitch,1,1147.7,Younger,toy,Dual,1
7,L2,French,valise,66,switch,1,1478.4,Younger,suitcase,Dual,1
7,L2,French,savon,67,nonswitch,1,1093.9,Younger,soap,Dual,1
7,L2,French,cheval,68,nonswitch,1,1179.2,Younger,horse,Dual,1
7,L1,English,plane,69,switch,1,1127.9,Younger,plane,Dual,1
7,L1,English,brain,70,nonswitch,1,1340.3,Younger,brain,Dual,1
7,L2,French,cadeau,71,switch,1,729,Younger,present,Dual,1
7,L2,French,coupe,72,nonswitch,1,1217.1,Younger,trophy,Dual,1
7,L2,French,journal,75,switch,1,1510.9,Younger,newspaper,Dual,1
7,L1,English,strawberry,76,switch,1,1997.8,Younger,strawberry,Dual,1
7,L1,English,broom,77,nonswitch,1,1411.2,Younger,broom,Dual,1
7,L2,French,fraise,78,switch,1,1164.8,Younger,strawberry,Dual,1
7,L2,French,gateau,79,nonswitch,1,1779.8,Younger,cake,Dual,1
7,L1,English,ladder,80,switch,1,1949.5,Younger,ladder,Dual,1
7,L2,French,tasse,82,switch,1,795.2,Younger,cup,Dual,1
7,L1,English,pen,83,switch,1,1056.5,Younger,pen,Dual,1
7,L1,English,present,84,nonswitch,1,1025.7,Younger,present,Dual,1
7,L1,English,teeth,85,nonswitch,1,1153.6,Younger,teeth,Dual,1
7,L2,French,balai,86,switch,1,1903.5,Younger,broom,Dual,1
7,L2,French,gateau,87,nonswitch,1,1317.9,Younger,cake,Dual,1
7,L1,English,strawberry,88,switch,1,1030.4,Younger,strawberry,Dual,1
7,L2,French,cadeau,89,switch,1,1441.1,Younger,present,Dual,1
7,L1,English,pen,90,switch,1,1018.2,Younger,pen,Dual,1
7,L1,English,toy,91,nonswitch,1,914.8,Younger,toy,Dual,1
7,L1,English,coat,92,nonswitch,1,1085.1,Younger,coat,Dual,1
7,L1,English,suitcase,93,nonswitch,1,1302.9,Younger,suitcase,Dual,1
7,L2,French,cerveau,94,switch,1,1026.4,Younger,brain,Dual,1
7,L2,French,balai,95,nonswitch,1,1059.7,Younger,broom,Dual,1
7,L1,English,suitcase,96,switch,1,1095,Younger,suitcase,Dual,1
7,L1,English,cup,97,nonswitch,1,917.3,Younger,cup,Dual,1
7,L1,English,broom,100,nonswitch,1,1440.1,Younger,broom,Dual,1
7,L2,French,échelle,101,switch,1,2023.2,Younger,ladder,Dual,1
7,L2,French,coupe,102,nonswitch,1,1034,Younger,trophy,Dual,1
7,L1,English,brain,103,switch,1,1080.4,Younger,brain,Dual,1
7,L1,English,newspaper,104,nonswitch,1,813.9,Younger,newspaper,Dual,1
7,L1,English,eye,105,nonswitch,1,896,Younger,eye,Dual,1
7,L1,English,strawberry,106,nonswitch,1,919,Younger,strawberry,Dual,1
7,L2,French,journal,107,switch,1,1179.7,Younger,newspaper,Dual,1
7,L2,French,fraise,108,nonswitch,1,902.7,Younger,strawberry,Dual,1
7,L1,English,teeth,109,switch,1,1049.1,Younger,teeth,Dual,1
7,L1,English,ladder,110,nonswitch,1,1123.7,Younger,ladder,Dual,1
7,L2,French,dents,111,switch,1,967.7,Younger,teeth,Dual,1
7,L2,French,stylo,112,nonswitch,1,1241.6,Younger,pen,Dual,1
7,L2,French,savon,113,nonswitch,1,854.9,Younger,soap,Dual,1
7,L1,English,horse,114,switch,1,1220.8,Younger,horse,Dual,1
7,L2,French,fraise,115,switch,1,952,Younger,strawberry,Dual,1
7,L1,English,candle,116,switch,1,1066.7,Younger,candle,Dual,1
7,L1,English,horse,117,nonswitch,1,955.1,Younger,horse,Dual,1
7,L2,French,couteau,118,switch,1,1157.3,Younger,knife,Dual,1
7,L2,French,valise,119,nonswitch,1,860.6,Younger,suitcase,Dual,1
7,L1,English,cup,120,switch,1,906.9,Younger,cup,Dual,1
7,L2,French,cerveau,122,nonswitch,1,1549.3,Younger,brain,Dual,1
7,L1,English,knife,123,switch,1,1012.1,Younger,knife,Dual,1
7,L1,English,cake,124,nonswitch,1,894.8,Younger,cake,Dual,1
7,L1,English,brain,125,nonswitch,1,1255.5,Younger,brain,Dual,1
7,L1,English,soap,126,nonswitch,1,1800.8,Younger,soap,Dual,1
7,L2,French,coupe,127,switch,1,1160.5,Younger,trophy,Dual,1
7,L2,French,tasse,128,nonswitch,1,1258.1,Younger,cup,Dual,1
7,L1,English,candle,131,nonswitch,1,2292.1,Younger,candle,Dual,1
7,L2,French,oeil,132,switch,1,922.1,Younger,eye,Dual,1
7,L1,English,broom,133,switch,1,831.7,Younger,broom,Dual,1
7,L1,English,trophy,134,nonswitch,1,1658.9,Younger,trophy,Dual,1
7,L2,French,bougie,135,switch,1,2651.1,Younger,candle,Dual,1
7,L2,French,stylo,136,nonswitch,1,776.5,Younger,pen,Dual,1
7,L2,French,échelle,137,nonswitch,1,1100.6,Younger,ladder,Dual,1
7,L1,English,toy,138,switch,1,1414.9,Younger,toy,Dual,1
7,L2,French,valise,139,switch,1,678.9,Younger,suitcase,Dual,1
7,L2,French,avion,140,nonswitch,1,914.7,Younger,plane,Dual,1
7,L1,English,ladder,141,switch,1,986.5,Younger,ladder,Dual,1
7,L2,French,savon,142,switch,1,705.6,Younger,soap,Dual,1
7,L2,French,journal,143,nonswitch,1,1087.9,Younger,newspaper,Dual,1
7,L2,French,manteau,144,nonswitch,1,1123.7,Younger,coat,Dual,1
7,L1,English,trophy,145,switch,1,1051.7,Younger,trophy,Dual,1
7,L2,French,avion,146,switch,1,839.5,Younger,plane,Dual,1
7,L2,French,couteau,147,nonswitch,1,1051.7,Younger,knife,Dual,1
7,L2,French,bougie,148,nonswitch,1,1616.5,Younger,candle,Dual,1
