participant,Image,Rule,CorrectResponse,Trialnr,TrialType,Context,accuracy,rt,AgeGroup,accuracy01
1,pen.png,ACTION,write,9,SingleNaming,SingleB,1,765.7,Older,1
1,bell.png,ACTION,ring,19,SingleNaming,SingleB,1,819.7,Older,1
1,bell.png,ACTION,ring,24,SingleNaming,SingleA,1,821.8,Older,1
1,ladder.png,ACTION,climb,15,SingleNaming,SingleB,1,823.7,Older,1
1,pipe.png,ACTION,smoke,159,nonswitch,Dual,1,834.6,Older,1
1,dart.png,ACTION,throw,4,SingleNaming,SingleB,1,835.1,Older,1
1,football.png,ACTION,kick,8,SingleNaming,SingleB,1,844.5,Older,1
1,bed.png,ACTION,sleep,18,SingleNaming,SingleB,1,852.5,Older,1
1,chair.png,ACTION,sit,23,SingleNaming,SingleA,1,864.9,Older,1
1,glass.png,ACTION,drink,34,SingleNaming,SingleA,1,868.3,Older,1
1,glass.png,ACTION,drink,14,SingleNaming,SingleB,1,869.8,Older,1
1,chair.png,ACTION,sit,3,SingleNaming,SingleB,1,879.4,Older,1
1,pipe.png,ACTION,smoke,1,SingleNaming,SingleB,1,880.5,Older,1
1,razor.png,ACTION,shave,67,nonswitch,Dual,1,899.8,Older,1
1,pool.png,ACTION,swim,11,SingleNaming,SingleB,1,901.4,Older,1
1,car.png,ACTION,drive,12,SingleNaming,SingleB,1,912,Older,1
1,razor.png,ACTION,shave,39,SingleNaming,SingleA,1,924,Older,1
1,scissors.png,ACTION,cut,10,SingleNaming,SingleB,1,926.4,Older,1
1,bed.png,ACTION,sleep,82,nonswitch,Dual,1,930.3,Older,1
1,bed.png,ACTION,sleep,38,SingleNaming,SingleA,1,933.5,Older,1
1,ladder.png,ACTION,climb,142,nonswitch,Dual,1,941.8,Older,1
1,pen.png,ACTION,write,29,SingleNaming,SingleA,1,951.1,Older,1
1,book.png,ACTION,read,37,SingleNaming,SingleA,1,952.9,Older,1
1,football.png,ACTION,kick,151,switch,Dual,1,954.9,Older,1
1,dart.png,ACTION,throw,36,SingleNaming,SingleA,1,955.4,Older,1
1,needle.png,ACTION,sew,21,SingleNaming,SingleA,1,972.2,Older,1
1,car.png,ACTION,drive,32,SingleNaming,SingleA,1,976.8,Older,1
1,book.png,ACTION,read,47,switch,Dual,1,979.2,Older,1
1,shovel.png,ACTION,dig,20,SingleNaming,SingleB,1,982.2,Older,1
1,dart.png,ACTION,throw,119,nonswitch,Dual,1,983.4,Older,1
1,pool.png,ACTION,swim,31,SingleNaming,SingleA,1,985.5,Older,1
1,pool.png,ACTION,swim,138,switch,Dual,1,989.9,Older,1
1,axe.png,ACTION,chop,123,switch,Dual,1,991.5,Older,1
1,book.png,ACTION,read,17,SingleNaming,SingleB,1,993.9,Older,1
1,ladder.png,ACTION,climb,26,SingleNaming,SingleA,1,1003.3,Older,1
1,glass.png,ACTION,drink,120,nonswitch,Dual,1,1006.1,Older,1
1,plane.png,ACTION,fly,147,nonswitch,Dual,1,1012.8,Older,1
1,plane.png,ACTION,fly,33,SingleNaming,SingleA,1,1016.2,Older,1
1,needle.png,ACTION,sew,40,nonswitch,Dual,1,1030.4,Older,1
1,shovel.png,ACTION,dig,40,SingleNaming,SingleA,1,1033.6,Older,1
1,glass.png,ACTION,drink,135,switch,Dual,1,1038.4,Older,1
1,book.png,ACTION,read,127,switch,Dual,1,1040.2,Older,1
1,axe.png,ACTION,chop,2,SingleNaming,SingleB,1,1048.3,Older,1
1,scissors.png,ACTION,cut,30,SingleNaming,SingleA,1,1067.8,Older,1
1,keyboard.png,ACTION,type,108,nonswitch,Dual,1,1077.2,Older,1
1,pipe.png,ACTION,smoke,89,switch,Dual,1,1087.7,Older,1
1,pipe.png,ACTION,smoke,28,SingleNaming,SingleA,1,1095.5,Older,1
1,shovel.png,ACTION,dig,118,switch,Dual,1,1097,Older,1
1,football.png,ACTION,kick,55,switch,Dual,1,1098.2,Older,1
1,book.png,ACTION,read,87,nonswitch,Dual,1,1100.4,Older,1
1,kettle.png,ACTION,boil,5,SingleNaming,SingleB,1,1105.1,Older,1
1,plane.png,ACTION,fly,58,switch,Dual,1,1108.5,Older,1
1,razor.png,ACTION,shave,6,SingleNaming,SingleB,1,1109.9,Older,1
1,football.png,ACTION,kick,35,SingleNaming,SingleA,2,1113.7,Older,0
1,plane.png,ACTION,fly,13,SingleNaming,SingleB,1,1125.1,Older,1
1,pipe.png,ACTION,smoke,17,nonswitch,Dual,1,1132.8,Older,1
1,chair.png,ACTION,sit,32,nonswitch,Dual,1,1139.6,Older,1
1,book.png,ACTION,read,28,nonswitch,Dual,1,1140.6,Older,1
1,car.png,ACTION,drive,75,nonswitch,Dual,1,1145.4,Older,1
1,chair.png,ACTION,sit,92,switch,Dual,1,1148.5,Older,1
1,kettle.png,ACTION,boil,25,SingleNaming,SingleA,1,1163.5,Older,1
1,plane.png,ACTION,fly,130,switch,Dual,1,1163.7,Older,1
1,axe.png,ACTION,chop,56,nonswitch,Dual,1,1166.8,Older,1
1,football.png,ACTION,kick,48,nonswitch,Dual,1,1171.7,Older,1
1,dart.png,ACTION,throw,38,switch,Dual,1,1174.9,Older,1
1,keyboard.png,ACTION,type,7,SingleNaming,SingleB,1,1178.7,Older,1
1,bell.png,ACTION,ring,68,nonswitch,Dual,1,1184,Older,1
1,axe.png,ACTION,chop,22,SingleNaming,SingleA,1,1189.2,Older,1
1,chair.png,ACTION,sit,144,nonswitch,Dual,1,1196.8,Older,1
1,car.png,ACTION,drive,90,nonswitch,Dual,1,1197.7,Older,1
1,plane.png,ACTION,fly,7,nonswitch,Dual,1,1207.5,Older,1
1,ladder.png,ACTION,climb,79,nonswitch,Dual,1,1222,Older,1
1,bell.png,ACTION,ring,64,nonswitch,Dual,1,1237.5,Older,1
1,shovel.png,ACTION,dig,71,switch,Dual,1,1243.7,Older,1
1,needle.png,ACTION,sew,34,switch,Dual,1,1260.3,Older,1
1,pen.png,ACTION,write,27,switch,Dual,1,1287,Older,1
1,kettle.png,ACTION,boil,155,nonswitch,Dual,1,1287.7,Older,1
1,dart.png,ACTION,throw,63,nonswitch,Dual,1,1301.1,Older,1
1,bed.png,ACTION,sleep,13,nonswitch,Dual,7,1315.5,Older,1
1,shovel.png,ACTION,dig,51,nonswitch,Dual,1,1320.1,Older,1
1,bed.png,ACTION,sleep,114,switch,Dual,1,1322.3,Older,1
1,car.png,ACTION,drive,107,switch,Dual,1,1350.2,Older,1
1,bell.png,ACTION,ring,22,switch,Dual,1,1362.7,Older,1
1,scissors.png,ACTION,cut,93,nonswitch,Dual,1,1391.9,Older,1
1,dart.png,ACTION,throw,158,switch,Dual,1,1400.5,Older,1
1,pipe.png,ACTION,smoke,66,switch,Dual,1,1403.5,Older,1
1,ladder.png,ACTION,climb,12,switch,Dual,3,1415.7,Older,0
1,shovel.png,ACTION,dig,96,switch,Dual,1,1417.4,Older,1
1,kettle.png,ACTION,boil,62,nonswitch,Dual,1,1435.1,Older,1
1,glass.png,ACTION,drink,10,nonswitch,Dual,7,1442.8,Older,1
1,scissors.png,ACTION,cut,154,switch,Dual,1,1463,Older,1
1,pen.png,ACTION,write,143,nonswitch,Dual,1,1475.9,Older,1
1,pool.png,ACTION,swim,39,nonswitch,Dual,1,1495.9,Older,1
1,pool.png,ACTION,swim,98,nonswitch,Dual,1,1497.2,Older,1
1,keyboard.png,ACTION,type,97,nonswitch,Dual,1,1500.8,Older,1
1,bed.png,ACTION,sleep,78,switch,Dual,1,1554.2,Older,1
1,bell.png,ACTION,ring,146,switch,Dual,1,1556,Older,1
1,needle.png,ACTION,sew,141,switch,Dual,1,1571.5,Older,1
1,ladder.png,ACTION,climb,102,switch,Dual,1,1574.8,Older,1
1,pen.png,ACTION,write,86,switch,Dual,1,1607.2,Older,1
1,razor.png,ACTION,shave,50,switch,Dual,1,1637.5,Older,1
1,keyboard.png,ACTION,type,112,nonswitch,Dual,1,1648.9,Older,1
1,keyboard.png,ACTION,type,2,nonswitch,Dual,1,1679.8,Older,1
1,pool.png,ACTION,swim,43,switch,Dual,1,1713.9,Older,1
1,needle.png,ACTION,sew,74,switch,Dual,1,1729.9,Older,1
1,keyboard.png,ACTION,type,27,SingleNaming,SingleA,1,1790.4,Older,1
1,razor.png,ACTION,shave,136,nonswitch,Dual,1,1793.4,Older,1
1,car.png,ACTION,drive,61,switch,Dual,1,1818.1,Older,1
1,scissors.png,ACTION,cut,6,switch,Dual,1,1847.3,Older,1
1,scissors.png,ACTION,cut,131,nonswitch,Dual,1,1852.8,Older,1
1,kettle.png,ACTION,boil,81,X,Dual,7,1859.8,Older,1
1,glass.png,ACTION,drink,16,switch,Dual,1,1860.9,Older,1
1,axe.png,ACTION,chop,31,switch,Dual,1,1901.8,Older,1
1,kettle.png,ACTION,boil,1,X,Dual,7,1973.5,Older,1
1,axe.png,ACTION,chop,128,nonswitch,Dual,1,1985.6,Older,1
1,football.png,ACTION,kick,148,nonswitch,Dual,1,2029.8,Older,1
1,chair.png,ACTION,sit,9,switch,Dual,3,2212.3,Older,0
1,razor.png,ACTION,shave,111,switch,Dual,1,2212.9,Older,1
1,pen.png,ACTION,write,18,nonswitch,Dual,1,2289.8,Older,1
1,needle.png,ACTION,sew,16,SingleNaming,SingleB,1,2636.7,Older,1
1,scissors.png,OBJECT,scissors,24,SingleNaming,SingleB,1,707.8,Older,1
1,glass.png,OBJECT,glass,23,SingleNaming,SingleB,1,774,Older,1
1,car.png,OBJECT,car,22,SingleNaming,SingleB,1,788.5,Older,1
1,chair.png,OBJECT,chair,37,SingleNaming,SingleB,1,791,Older,1
1,football.png,OBJECT,ball,33,SingleNaming,SingleB,1,825.6,Older,1
1,plane.png,OBJECT,plane,20,SingleNaming,SingleA,1,836.3,Older,1
1,razor.png,OBJECT,razor,34,SingleNaming,SingleB,1,838.3,Older,1
1,bell.png,OBJECT,bell,36,SingleNaming,SingleB,1,840.6,Older,1
1,scissors.png,OBJECT,scissors,18,SingleNaming,SingleA,1,845.7,Older,1
1,pen.png,OBJECT,pen,6,SingleNaming,SingleA,1,856.2,Older,1
1,pipe.png,OBJECT,pipe,21,SingleNaming,SingleB,1,860.2,Older,1
1,chair.png,OBJECT,chair,8,SingleNaming,SingleA,1,860.4,Older,1
1,ladder.png,OBJECT,ladder,19,SingleNaming,SingleA,1,862.9,Older,1
1,needle.png,OBJECT,needle,9,SingleNaming,SingleA,1,865.2,Older,1
1,car.png,OBJECT,car,10,SingleNaming,SingleA,1,866.6,Older,1
1,kettle.png,OBJECT,kettle,31,SingleNaming,SingleB,1,868.1,Older,1
1,bed.png,OBJECT,bed,32,SingleNaming,SingleB,1,869.9,Older,1
1,book.png,OBJECT,book,5,SingleNaming,SingleA,1,887.3,Older,1
1,bell.png,OBJECT,bell,17,SingleNaming,SingleA,1,892.3,Older,1
1,football.png,OBJECT,ball,2,SingleNaming,SingleA,1,916.2,Older,1
1,book.png,OBJECT,book,39,SingleNaming,SingleB,1,917.8,Older,1
1,pen.png,OBJECT,pen,38,SingleNaming,SingleB,1,923.7,Older,1
1,keyboard.png,OBJECT,keyboard,28,SingleNaming,SingleB,1,925,Older,1
1,glass.png,OBJECT,glass,14,SingleNaming,SingleA,1,932.7,Older,1
1,razor.png,OBJECT,razor,16,SingleNaming,SingleA,1,937,Older,1
1,glass.png,OBJECT,glass,117,nonswitch,Dual,1,945.7,Older,1
1,ladder.png,OBJECT,ladder,29,switch,Dual,1,947.2,Older,1
1,keyboard.png,OBJECT,keyboard,3,SingleNaming,SingleA,1,956.4,Older,1
1,pipe.png,OBJECT,pipe,137,switch,Dual,1,960,Older,1
1,pipe.png,OBJECT,pipe,15,SingleNaming,SingleA,1,963.8,Older,1
1,book.png,OBJECT,book,150,nonswitch,Dual,1,970.8,Older,1
1,ladder.png,OBJECT,ladder,30,SingleNaming,SingleB,1,982.1,Older,1
1,plane.png,OBJECT,plane,26,SingleNaming,SingleB,1,985.1,Older,1
1,needle.png,OBJECT,needle,27,SingleNaming,SingleB,1,1004.1,Older,1
1,pen.png,OBJECT,pen,33,switch,Dual,1,1004.8,Older,1
1,chair.png,OBJECT,chair,19,switch,Dual,1,1006.5,Older,1
1,chair.png,OBJECT,chair,25,nonswitch,Dual,1,1007.8,Older,1
1,bed.png,OBJECT,bed,7,SingleNaming,SingleA,1,1010.9,Older,1
1,ladder.png,OBJECT,ladder,60,nonswitch,Dual,1,1019.2,Older,1
1,ladder.png,OBJECT,ladder,115,switch,Dual,1,1022.1,Older,1
1,plane.png,OBJECT,plane,156,switch,Dual,1,1025.9,Older,1
1,glass.png,OBJECT,glass,152,switch,Dual,1,1027.2,Older,1
1,football.png,OBJECT,ball,14,switch,Dual,1,1031.9,Older,1
1,pool.png,OBJECT,pool,35,SingleNaming,SingleB,1,1036.9,Older,1
1,pool.png,OBJECT,pool,140,nonswitch,Dual,1,1045,Older,1
1,bed.png,OBJECT,bed,72,switch,Dual,1,1053.8,Older,1
1,football.png,OBJECT,ball,106,nonswitch,Dual,1,1056,Older,1
1,book.png,OBJECT,book,30,nonswitch,Dual,1,1057.2,Older,1
1,book.png,OBJECT,book,35,switch,Dual,1,1089.5,Older,1
1,scissors.png,OBJECT,scissors,65,switch,Dual,1,1093.6,Older,1
1,pool.png,OBJECT,pool,4,SingleNaming,SingleA,1,1098.5,Older,1
1,plane.png,OBJECT,plane,104,nonswitch,Dual,1,1100.6,Older,1
1,car.png,OBJECT,car,84,nonswitch,Dual,1,1101.4,Older,1
1,bed.png,OBJECT,bed,139,switch,Dual,1,1104.8,Older,1
1,scissors.png,OBJECT,scissors,129,switch,Dual,1,1105.1,Older,1
1,kettle.png,OBJECT,kettle,13,SingleNaming,SingleA,1,1105.8,Older,1
1,bell.png,OBJECT,bell,15,nonswitch,Dual,1,1112.7,Older,1
1,scissors.png,OBJECT,scissors,37,nonswitch,Dual,1,1120.9,Older,1
1,glass.png,OBJECT,glass,41,X,Dual,7,1126.8,Older,1
1,bell.png,OBJECT,bell,94,switch,Dual,1,1127.9,Older,1
1,pen.png,OBJECT,pen,46,nonswitch,Dual,1,1133.8,Older,1
1,bed.png,OBJECT,bed,110,nonswitch,Dual,1,1141.6,Older,1
1,pen.png,OBJECT,pen,91,switch,Dual,1,1164.4,Older,1
1,pipe.png,OBJECT,pipe,24,nonswitch,Dual,1,1194.2,Older,1
1,pipe.png,OBJECT,pipe,11,switch,Dual,1,1198.6,Older,1
1,pen.png,OBJECT,pen,125,nonswitch,Dual,1,1204.6,Older,1
1,kettle.png,OBJECT,kettle,76,switch,Dual,1,1206.1,Older,1
1,kettle.png,OBJECT,kettle,160,switch,Dual,1,1206.1,Older,1
1,chair.png,OBJECT,chair,124,switch,Dual,1,1211.1,Older,1
1,bell.png,OBJECT,bell,116,nonswitch,Dual,1,1212.8,Older,1
1,shovel.png,OBJECT,shovel,29,SingleNaming,SingleB,2,1215.5,Older,0
1,pool.png,OBJECT,pool,36,nonswitch,Dual,1,1225,Older,1
1,dart.png,OBJECT,dart,88,switch,Dual,1,1232.3,Older,1
1,dart.png,OBJECT,dart,40,SingleNaming,SingleB,1,1237.8,Older,1
1,axe.png,OBJECT,axe,25,SingleNaming,SingleB,1,1240.5,Older,1
1,bell.png,OBJECT,bell,59,switch,Dual,1,1251.9,Older,1
1,keyboard.png,OBJECT,keyboard,73,nonswitch,Dual,1,1260.5,Older,1
1,dart.png,OBJECT,dart,77,nonswitch,Dual,1,1262.9,Older,1
1,glass.png,OBJECT,glass,21,nonswitch,Dual,1,1280.1,Older,1
1,axe.png,OBJECT,axe,145,switch,Dual,1,1285.3,Older,1
1,plane.png,OBJECT,plane,53,nonswitch,Dual,1,1285.8,Older,1
1,razor.png,OBJECT,razor,57,switch,Dual,1,1287.8,Older,1
1,razor.png,OBJECT,razor,99,switch,Dual,1,1288.6,Older,1
1,kettle.png,OBJECT,kettle,105,nonswitch,Dual,1,1294.1,Older,1
1,ladder.png,OBJECT,ladder,100,nonswitch,Dual,1,1311.6,Older,1
1,dart.png,OBJECT,dart,122,nonswitch,Dual,1,1320,Older,1
1,pool.png,OBJECT,pool,49,switch,Dual,1,1326.9,Older,1
1,pool.png,OBJECT,pool,149,switch,Dual,1,1333.8,Older,1
1,needle.png,OBJECT,needle,133,nonswitch,Dual,1,1358.4,Older,1
1,axe.png,OBJECT,axe,26,nonswitch,Dual,1,1359.4,Older,1
1,shovel.png,OBJECT,shovel,12,SingleNaming,SingleA,1,1361.1,Older,1
1,dart.png,OBJECT,dart,69,switch,Dual,1,1387.2,Older,1
1,kettle.png,OBJECT,kettle,45,nonswitch,Dual,1,1398.4,Older,1
1,car.png,OBJECT,car,42,nonswitch,Dual,1,1414.7,Older,1
1,keyboard.png,OBJECT,keyboard,83,switch,Dual,1,1421.8,Older,1
1,plane.png,OBJECT,plane,44,switch,Dual,1,1428,Older,1
1,axe.png,OBJECT,axe,11,SingleNaming,SingleA,1,1443.6,Older,1
1,chair.png,OBJECT,chair,85,nonswitch,Dual,1,1446.5,Older,1
1,scissors.png,OBJECT,scissors,126,nonswitch,Dual,1,1451.5,Older,1
1,car.png,OBJECT,car,103,switch,Dual,1,1471.4,Older,1
1,shovel.png,OBJECT,shovel,134,nonswitch,Dual,2,1500.1,Older,0
1,axe.png,OBJECT,axe,101,nonswitch,Dual,1,1511.9,Older,1
1,dart.png,OBJECT,dart,1,SingleNaming,SingleA,1,1521.5,Older,1
1,pipe.png,OBJECT,pipe,95,nonswitch,Dual,1,1526.8,Older,1
1,car.png,OBJECT,car,3,switch,Dual,1,1539.8,Older,1
1,book.png,OBJECT,book,132,switch,Dual,1,1560.5,Older,1
1,razor.png,OBJECT,razor,70,nonswitch,Dual,1,1588,Older,1
1,bed.png,OBJECT,bed,54,nonswitch,Dual,1,1625.7,Older,1
1,keyboard.png,OBJECT,keyboard,153,nonswitch,Dual,1,1685.2,Older,1
1,needle.png,OBJECT,needle,8,switch,Dual,1,1720.3,Older,1
1,needle.png,OBJECT,needle,113,switch,Dual,1,1801.4,Older,1
1,needle.png,OBJECT,needle,20,nonswitch,Dual,1,1821.5,Older,1
1,shovel.png,OBJECT,shovel,4,nonswitch,Dual,2,1838.8,Older,0
1,shovel.png,OBJECT,shovel,80,switch,Dual,2,1849.9,Older,0
1,football.png,OBJECT,ball,5,nonswitch,Dual,1,1972,Older,1
1,keyboard.png,OBJECT,keyboard,23,switch,Dual,1,2044.4,Older,1
1,axe.png,OBJECT,axe,52,switch,Dual,1,2143.2,Older,1
1,football.png,OBJECT,ball,121,X,Dual,7,2169.6,Older,1
1,shovel.png,OBJECT,shovel,109,switch,Dual,2,2236.6,Older,0
1,razor.png,OBJECT,razor,157,nonswitch,Dual,1,2297.6,Older,1
2,pen.png,ACTION,write,9,SingleNaming,SingleB,1,660.2,Younger,1
2,keyboard.png,ACTION,type,112,nonswitch,Dual,1,738.1,Younger,1
2,football.png,ACTION,kick,8,SingleNaming,SingleB,1,775.8,Younger,1
2,shovel.png,ACTION,dig,20,SingleNaming,SingleB,1,800.1,Younger,1
2,needle.png,ACTION,sew,16,SingleNaming,SingleB,1,820.1,Younger,1
2,dart.png,ACTION,throw,36,SingleNaming,SingleA,1,822.3,Younger,1
2,chair.png,ACTION,sit,23,SingleNaming,SingleA,1,827.7,Younger,1
2,bed.png,ACTION,sleep,18,SingleNaming,SingleB,1,833.4,Younger,1
2,ladder.png,ACTION,climb,15,SingleNaming,SingleB,1,846.4,Younger,1
2,bell.png,ACTION,ring,19,SingleNaming,SingleB,1,853.6,Younger,1
2,book.png,ACTION,read,17,SingleNaming,SingleB,1,861.6,Younger,1
2,plane.png,ACTION,fly,33,SingleNaming,SingleA,1,876.5,Younger,1
2,car.png,ACTION,drive,32,SingleNaming,SingleA,1,878.6,Younger,1
2,scissors.png,ACTION,cut,30,SingleNaming,SingleA,1,881.5,Younger,1
2,bed.png,ACTION,sleep,82,nonswitch,Dual,1,944.6,Younger,1
2,glass.png,ACTION,drink,14,SingleNaming,SingleB,1,951.5,Younger,1
2,needle.png,ACTION,sew,21,SingleNaming,SingleA,1,956.3,Younger,1
2,bed.png,ACTION,sleep,38,SingleNaming,SingleA,1,961.2,Younger,1
2,pipe.png,ACTION,smoke,1,SingleNaming,SingleB,1,971.7,Younger,1
2,pool.png,ACTION,swim,11,SingleNaming,SingleB,1,976.1,Younger,1
2,pool.png,ACTION,swim,31,SingleNaming,SingleA,1,979,Younger,1
2,pen.png,ACTION,write,86,switch,Dual,1,981.3,Younger,1
2,chair.png,ACTION,sit,144,nonswitch,Dual,1,988.8,Younger,1
2,pen.png,ACTION,write,27,switch,Dual,1,996.4,Younger,1
2,chair.png,ACTION,sit,3,SingleNaming,SingleB,1,998.4,Younger,1
2,pool.png,ACTION,swim,98,nonswitch,Dual,1,1010.5,Younger,1
2,scissors.png,ACTION,cut,10,SingleNaming,SingleB,1,1013.2,Younger,1
2,book.png,ACTION,read,37,SingleNaming,SingleA,1,1025.7,Younger,1
2,razor.png,ACTION,shave,6,SingleNaming,SingleB,1,1028.3,Younger,1
2,pen.png,ACTION,write,29,SingleNaming,SingleA,1,1031.6,Younger,1
2,shovel.png,ACTION,dig,40,SingleNaming,SingleA,1,1033.7,Younger,1
2,pool.png,ACTION,swim,39,nonswitch,Dual,1,1034.8,Younger,1
2,football.png,ACTION,kick,35,SingleNaming,SingleA,1,1044.8,Younger,1
2,dart.png,ACTION,throw,4,SingleNaming,SingleB,1,1047.9,Younger,1
2,axe.png,ACTION,chop,22,SingleNaming,SingleA,1,1049.6,Younger,1
2,plane.png,ACTION,fly,147,nonswitch,Dual,1,1049.7,Younger,1
2,book.png,ACTION,read,28,nonswitch,Dual,1,1055.7,Younger,1
2,pipe.png,ACTION,smoke,28,SingleNaming,SingleA,1,1066.7,Younger,1
2,kettle.png,ACTION,boil,5,SingleNaming,SingleB,1,1070.9,Younger,1
2,scissors.png,ACTION,cut,93,nonswitch,Dual,1,1083.2,Younger,1
2,ladder.png,ACTION,climb,102,switch,Dual,1,1084.7,Younger,1
2,plane.png,ACTION,fly,13,SingleNaming,SingleB,1,1090.4,Younger,1
2,pipe.png,ACTION,smoke,89,switch,Dual,1,1096.5,Younger,1
2,plane.png,ACTION,fly,58,switch,Dual,1,1105.1,Younger,1
2,pool.png,ACTION,swim,43,switch,Dual,1,1113.6,Younger,1
2,axe.png,ACTION,chop,127,switch,Dual,2,1121.9,Younger,0
2,ladder.png,ACTION,climb,26,SingleNaming,SingleA,1,1141.1,Younger,1
2,keyboard.png,ACTION,type,108,nonswitch,Dual,1,1154,Younger,1
2,plane.png,ACTION,fly,7,nonswitch,Dual,1,1156.3,Younger,1
2,car.png,ACTION,drive,12,SingleNaming,SingleB,1,1160.5,Younger,1
2,kettle.png,ACTION,boil,155,nonswitch,Dual,1,1161.8,Younger,1
2,bed.png,ACTION,sleep,114,switch,Dual,1,1162.6,Younger,1
2,razor.png,ACTION,shave,39,SingleNaming,SingleA,1,1164.8,Younger,1
2,car.png,ACTION,drive,75,nonswitch,Dual,1,1164.8,Younger,1
2,pipe.png,ACTION,smoke,159,nonswitch,Dual,1,1165.2,Younger,1
2,pipe.png,ACTION,smoke,17,nonswitch,Dual,1,1165.6,Younger,1
2,pen.png,ACTION,write,143,nonswitch,Dual,1,1173.3,Younger,1
2,keyboard.png,ACTION,type,7,SingleNaming,SingleB,1,1185.9,Younger,1
2,book.png,ACTION,read,87,nonswitch,Dual,1,1190.4,Younger,1
2,bed.png,ACTION,sleep,13,nonswitch,Dual,1,1191.5,Younger,1
2,football.png,ACTION,kick,55,switch,Dual,1,1207.1,Younger,1
2,keyboard.png,ACTION,type,27,SingleNaming,SingleA,1,1208.1,Younger,1
2,shovel.png,ACTION,dig,71,switch,Dual,1,1214.6,Younger,1
2,football.png,ACTION,kick,148,nonswitch,Dual,1,1218.7,Younger,1
2,razor.png,ACTION,shave,111,switch,Dual,1,1220.3,Younger,1
2,needle.png,ACTION,sew,141,switch,Dual,1,1225.1,Younger,1
2,ladder.png,ACTION,climb,142,nonswitch,Dual,1,1225.1,Younger,1
2,book.png,ACTION,read,47,switch,Dual,1,1228.8,Younger,1
2,dart.png,ACTION,throw,158,switch,Dual,1,1241.6,Younger,1
2,bell.png,ACTION,ring,22,switch,Dual,1,1244.3,Younger,1
2,shovel.png,ACTION,dig,118,switch,Dual,1,1250.1,Younger,1
2,bell.png,ACTION,ring,64,nonswitch,Dual,1,1283.4,Younger,1
2,chair.png,ACTION,sit,32,nonswitch,Dual,1,1297.1,Younger,1
2,scissors.png,ACTION,cut,131,nonswitch,Dual,1,1300.4,Younger,1
2,scissors.png,ACTION,cut,154,switch,Dual,1,1309.9,Younger,1
2,ladder.png,ACTION,climb,12,switch,Dual,1,1325.8,Younger,1
2,football.png,ACTION,kick,48,nonswitch,Dual,1,1331.2,Younger,1
2,bell.png,ACTION,ring,24,SingleNaming,SingleA,1,1335.3,Younger,1
2,car.png,ACTION,drive,107,switch,Dual,1,1339.7,Younger,1
2,keyboard.png,ACTION,type,97,nonswitch,Dual,1,1344,Younger,1
2,glass.png,ACTION,drink,135,switch,Dual,1,1356.8,Younger,1
2,needle.png,ACTION,sew,40,nonswitch,Dual,1,1373.1,Younger,1
2,ladder.png,ACTION,climb,79,nonswitch,Dual,1,1388.2,Younger,1
2,chair.png,ACTION,sit,9,switch,Dual,1,1391.6,Younger,1
2,bed.png,ACTION,sleep,78,switch,Dual,1,1413.3,Younger,1
2,pool.png,ACTION,swim,138,switch,Dual,1,1420.8,Younger,1
2,kettle.png,ACTION,boil,25,SingleNaming,SingleA,1,1438.3,Younger,1
2,book.png,ACTION,read,123,switch,Dual,1,1439.1,Younger,1
2,chair.png,ACTION,sit,92,switch,Dual,1,1476.8,Younger,1
2,pen.png,ACTION,write,18,nonswitch,Dual,1,1527.8,Younger,1
2,car.png,ACTION,drive,61,switch,Dual,1,1532.6,Younger,1
2,keyboard.png,ACTION,type,2,nonswitch,Dual,1,1545.9,Younger,1
2,shovel.png,ACTION,dig,96,switch,Dual,1,1557.2,Younger,1
2,axe.png,ACTION,chop,56,nonswitch,Dual,2,1586,Younger,0
2,car.png,ACTION,drive,90,nonswitch,Dual,1,1599.4,Younger,1
2,scissors.png,ACTION,cut,6,switch,Dual,1,1621.1,Younger,1
2,kettle.png,ACTION,boil,62,nonswitch,Dual,1,1624.8,Younger,1
2,bell.png,ACTION,ring,68,nonswitch,Dual,1,1634.1,Younger,1
2,dart.png,ACTION,throw,63,nonswitch,Dual,1,1653.8,Younger,1
2,bell.png,ACTION,ring,146,switch,Dual,1,1668.5,Younger,1
2,glass.png,ACTION,drink,120,nonswitch,Dual,1,1681.1,Younger,1
2,shovel.png,ACTION,dig,51,nonswitch,Dual,7,1689.6,Younger,1
2,plane.png,ACTION,fly,130,switch,Dual,1,1719.5,Younger,1
2,axe.png,ACTION,chop,128,nonswitch,Dual,2,1743.6,Younger,0
2,needle.png,ACTION,sew,34,switch,Dual,1,1749.3,Younger,1
2,kettle.png,ACTION,boil,81,X,Dual,7,1787.7,Younger,1
2,pipe.png,ACTION,smoke,66,switch,Dual,1,1789.1,Younger,1
2,dart.png,ACTION,throw,38,switch,Dual,1,1812.9,Younger,1
2,football.png,ACTION,kick,151,switch,Dual,1,1819.2,Younger,1
2,razor.png,ACTION,shave,136,nonswitch,Dual,1,1868.1,Younger,1
2,axe.png,ACTION,chop,31,switch,Dual,2,1884.1,Younger,0
2,axe.png,ACTION,chop,2,SingleNaming,SingleB,1,1888.8,Younger,1
2,glass.png,ACTION,drink,34,SingleNaming,SingleA,1,1891.7,Younger,1
2,glass.png,ACTION,drink,16,switch,Dual,1,1905,Younger,1
2,needle.png,ACTION,sew,74,switch,Dual,1,1920,Younger,1
2,razor.png,ACTION,shave,50,switch,Dual,3,1949.9,Younger,0
2,kettle.png,ACTION,boil,1,X,Dual,7,2193.1,Younger,1
2,glass.png,ACTION,drink,10,nonswitch,Dual,1,2281.3,Younger,1
2,razor.png,ACTION,shave,67,nonswitch,Dual,1,2359.5,Younger,1
2,dart.png,ACTION,throw,119,nonswitch,Dual,1,2835.9,Younger,1
2,pen.png,OBJECT,pen,125,nonswitch,Dual,1,383.6,Younger,1
2,bed.png,OBJECT,bed,32,SingleNaming,SingleB,1,721.1,Younger,1
2,bell.png,OBJECT,bell,36,SingleNaming,SingleB,1,737.6,Younger,1
2,plane.png,OBJECT,plane,20,SingleNaming,SingleA,1,745.9,Younger,1
2,pen.png,OBJECT,pen,6,SingleNaming,SingleA,1,751.4,Younger,1
2,scissors.png,OBJECT,scissors,18,SingleNaming,SingleA,1,756,Younger,1
2,pipe.png,OBJECT,pipe,15,SingleNaming,SingleA,1,768,Younger,1
2,pipe.png,OBJECT,pipe,21,SingleNaming,SingleB,1,772.3,Younger,1
2,shovel.png,OBJECT,shovel,12,SingleNaming,SingleA,1,778.2,Younger,1
2,scissors.png,OBJECT,scissors,24,SingleNaming,SingleB,1,788.1,Younger,1
2,dart.png,OBJECT,dart,40,SingleNaming,SingleB,1,788.6,Younger,1
2,glass.png,OBJECT,glass,23,SingleNaming,SingleB,2,792.1,Younger,0
2,car.png,OBJECT,car,10,SingleNaming,SingleA,1,811.3,Younger,1
2,car.png,OBJECT,car,3,switch,Dual,1,814.9,Younger,1
2,pen.png,OBJECT,pen,38,SingleNaming,SingleB,1,820.6,Younger,1
2,car.png,OBJECT,car,22,SingleNaming,SingleB,1,823.9,Younger,1
2,ladder.png,OBJECT,ladder,19,SingleNaming,SingleA,1,828.9,Younger,1
2,keyboard.png,OBJECT,keyboard,28,SingleNaming,SingleB,1,834.4,Younger,1
2,bell.png,OBJECT,bell,116,nonswitch,Dual,1,839.6,Younger,1
2,plane.png,OBJECT,plane,26,SingleNaming,SingleB,1,841.8,Younger,1
2,book.png,OBJECT,book,5,SingleNaming,SingleA,1,851.2,Younger,1
2,needle.png,OBJECT,needle,9,SingleNaming,SingleA,1,853.3,Younger,1
2,axe.png,OBJECT,axe,11,SingleNaming,SingleA,1,861.9,Younger,1
2,chair.png,OBJECT,chair,37,SingleNaming,SingleB,1,863.5,Younger,1
2,pool.png,OBJECT,pool,35,SingleNaming,SingleB,1,864.9,Younger,1
2,plane.png,OBJECT,plane,104,nonswitch,Dual,1,867.4,Younger,1
2,bell.png,OBJECT,bell,17,SingleNaming,SingleA,1,874.5,Younger,1
2,scissors.png,OBJECT,scissors,126,nonswitch,Dual,1,886.1,Younger,1
2,kettle.png,OBJECT,kettle,31,SingleNaming,SingleB,1,904.5,Younger,1
2,keyboard.png,OBJECT,keyboard,83,switch,Dual,1,905.3,Younger,1
2,chair.png,OBJECT,chair,8,SingleNaming,SingleA,1,913.1,Younger,1
2,football.png,OBJECT,ball,33,SingleNaming,SingleB,1,930.1,Younger,1
2,scissors.png,OBJECT,scissors,65,switch,Dual,1,937.4,Younger,1
2,book.png,OBJECT,book,39,SingleNaming,SingleB,1,937.7,Younger,1
2,bed.png,OBJECT,bed,110,nonswitch,Dual,1,942.1,Younger,1
2,razor.png,OBJECT,razor,16,SingleNaming,SingleA,1,942.9,Younger,1
2,keyboard.png,OBJECT,keyboard,3,SingleNaming,SingleA,1,953.8,Younger,1
2,shovel.png,OBJECT,shovel,29,SingleNaming,SingleB,1,958.5,Younger,1
2,pool.png,OBJECT,pool,4,SingleNaming,SingleA,1,961.6,Younger,1
2,car.png,OBJECT,car,84,nonswitch,Dual,1,977.1,Younger,1
2,dart.png,OBJECT,dart,1,SingleNaming,SingleA,1,1032.5,Younger,1
2,car.png,OBJECT,car,42,nonswitch,Dual,1,1045.3,Younger,1
2,bed.png,OBJECT,bed,7,SingleNaming,SingleA,1,1062.8,Younger,1
2,book.png,OBJECT,book,30,nonswitch,Dual,1,1073.8,Younger,1
2,plane.png,OBJECT,plane,44,switch,Dual,1,1075.2,Younger,1
2,pen.png,OBJECT,pen,46,nonswitch,Dual,1,1075.2,Younger,1
2,kettle.png,OBJECT,kettle,76,switch,Dual,1,1080.1,Younger,1
2,plane.png,OBJECT,plane,156,switch,Dual,1,1085.2,Younger,1
2,axe.png,OBJECT,axe,25,SingleNaming,SingleB,1,1092.3,Younger,1
2,pipe.png,OBJECT,pipe,24,nonswitch,Dual,1,1097.5,Younger,1
2,kettle.png,OBJECT,kettle,45,nonswitch,Dual,1,1102.9,Younger,1
2,chair.png,OBJECT,chair,19,switch,Dual,1,1105.1,Younger,1
2,bed.png,OBJECT,bed,72,switch,Dual,1,1115.8,Younger,1
2,axe.png,OBJECT,axe,26,nonswitch,Dual,1,1116.1,Younger,1
2,dart.png,OBJECT,dart,122,nonswitch,Dual,1,1117.2,Younger,1
2,bed.png,OBJECT,bed,139,switch,Dual,1,1130.7,Younger,1
2,shovel.png,OBJECT,shovel,80,switch,Dual,1,1148.7,Younger,1
2,car.png,OBJECT,car,103,switch,Dual,1,1161.4,Younger,1
2,plane.png,OBJECT,plane,53,nonswitch,Dual,1,1164.8,Younger,1
2,pipe.png,OBJECT,pipe,137,switch,Dual,1,1169.1,Younger,1
2,razor.png,OBJECT,razor,99,switch,Dual,1,1177.5,Younger,1
2,book.png,OBJECT,book,35,switch,Dual,1,1189.5,Younger,1
2,razor.png,OBJECT,razor,57,switch,Dual,1,1194.7,Younger,1
2,kettle.png,OBJECT,kettle,105,nonswitch,Dual,1,1200.9,Younger,1
2,razor.png,OBJECT,razor,34,SingleNaming,SingleB,1,1203.2,Younger,1
2,bell.png,OBJECT,bell,59,switch,Dual,1,1203.2,Younger,1
2,needle.png,OBJECT,needle,133,nonswitch,Dual,1,1204,Younger,1
2,scissors.png,OBJECT,scissors,37,nonswitch,Dual,1,1214.1,Younger,1
2,glass.png,OBJECT,glass,21,nonswitch,Dual,2,1223.8,Younger,0
2,glass.png,OBJECT,glass,117,nonswitch,Dual,2,1227.6,Younger,0
2,pen.png,OBJECT,pen,33,switch,Dual,1,1244.8,Younger,1
2,pool.png,OBJECT,pool,149,switch,Dual,1,1247.4,Younger,1
2,glass.png,OBJECT,glass,41,X,Dual,7,1250.1,Younger,1
2,dart.png,OBJECT,dart,88,switch,Dual,1,1271.5,Younger,1
2,football.png,OBJECT,ball,14,switch,Dual,1,1273.4,Younger,1
2,chair.png,OBJECT,chair,124,switch,Dual,1,1284.3,Younger,1
2,keyboard.png,OBJECT,keyboard,73,nonswitch,Dual,1,1285.5,Younger,1
2,needle.png,OBJECT,needle,27,SingleNaming,SingleB,1,1293,Younger,1
2,bell.png,OBJECT,bell,94,switch,Dual,1,1294.2,Younger,1
2,book.png,OBJECT,book,132,switch,Dual,1,1299.2,Younger,1
2,chair.png,OBJECT,chair,25,nonswitch,Dual,1,1305.6,Younger,1
2,ladder.png,OBJECT,ladder,60,nonswitch,Dual,1,1314.1,Younger,1
2,ladder.png,OBJECT,ladder,115,switch,Dual,1,1316.2,Younger,1
2,football.png,OBJECT,ball,121,X,Dual,7,1344,Younger,1
2,football.png,OBJECT,ball,2,SingleNaming,SingleA,1,1358.5,Younger,1
2,keyboard.png,OBJECT,keyboard,153,nonswitch,Dual,1,1373.6,Younger,1
2,pool.png,OBJECT,pool,49,switch,Dual,1,1382.4,Younger,1
2,axe.png,OBJECT,axe,101,nonswitch,Dual,1,1383.4,Younger,1
2,glass.png,OBJECT,glass,152,switch,Dual,2,1420.8,Younger,0
2,needle.png,OBJECT,needle,113,switch,Dual,1,1422.7,Younger,1
2,bell.png,OBJECT,bell,15,nonswitch,Dual,1,1423.9,Younger,1
2,razor.png,OBJECT,razor,70,nonswitch,Dual,1,1433.6,Younger,1
2,pipe.png,OBJECT,pipe,95,nonswitch,Dual,1,1446.4,Younger,1
2,pen.png,OBJECT,pen,91,switch,Dual,1,1455,Younger,1
2,keyboard.png,OBJECT,keyboard,23,switch,Dual,1,1460.7,Younger,1
2,ladder.png,OBJECT,ladder,29,switch,Dual,1,1464.9,Younger,1
2,pool.png,OBJECT,pool,140,nonswitch,Dual,1,1468.1,Younger,1
2,glass.png,OBJECT,glass,14,SingleNaming,SingleA,1,1510.4,Younger,1
2,ladder.png,OBJECT,ladder,30,SingleNaming,SingleB,1,1510.4,Younger,1
2,football.png,OBJECT,ball,106,nonswitch,Dual,1,1523.2,Younger,1
2,ladder.png,OBJECT,ladder,100,nonswitch,Dual,1,1551,Younger,1
2,book.png,OBJECT,book,150,nonswitch,Dual,1,1568.4,Younger,1
2,pipe.png,OBJECT,pipe,11,switch,Dual,1,1570.1,Younger,1
2,axe.png,OBJECT,axe,145,switch,Dual,1,1570.1,Younger,1
2,shovel.png,OBJECT,shovel,4,nonswitch,Dual,1,1598.6,Younger,1
2,needle.png,OBJECT,needle,8,switch,Dual,1,1604.3,Younger,1
2,shovel.png,OBJECT,shovel,109,switch,Dual,1,1629,Younger,1
2,pool.png,OBJECT,pool,36,nonswitch,Dual,1,1651.2,Younger,1
2,chair.png,OBJECT,chair,85,nonswitch,Dual,1,1774.9,Younger,1
2,football.png,OBJECT,ball,5,nonswitch,Dual,1,1775.5,Younger,1
2,axe.png,OBJECT,axe,52,switch,Dual,1,1787.7,Younger,1
2,bed.png,OBJECT,bed,54,nonswitch,Dual,1,1817.9,Younger,1
2,dart.png,OBJECT,dart,69,switch,Dual,1,1843.5,Younger,1
2,scissors.png,OBJECT,scissors,129,switch,Dual,1,1870.4,Younger,1
2,kettle.png,OBJECT,kettle,160,switch,Dual,1,1939.1,Younger,1
2,kettle.png,OBJECT,kettle,13,SingleNaming,SingleA,1,1985.4,Younger,1
2,needle.png,OBJECT,needle,20,nonswitch,Dual,1,1986.2,Younger,1
2,shovel.png,OBJECT,shovel,134,nonswitch,Dual,1,2001.1,Younger,1
2,dart.png,OBJECT,dart,77,nonswitch,Dual,1,2159.9,Younger,1
2,razor.png,OBJECT,razor,157,nonswitch,Dual,1,2197.6,Younger,1
3,chair.png,ACTION,sit,23,SingleNaming,SingleA,1,1018.1,Older,1
3,ladder.png,ACTION,climb,26,SingleNaming,SingleA,1,1042.2,Older,1
3,car.png,ACTION,drive,90,nonswitch,Dual,3,1043.9,Older,0
3,bed.png,ACTION,sleep,38,SingleNaming,SingleA,1,1052.9,Older,1
3,scissors.png,ACTION,cut,30,SingleNaming,SingleA,1,1063.1,Older,1
3,book.png,ACTION,read,37,SingleNaming,SingleA,1,1070,Older,1
3,kettle.png,ACTION,boil,5,SingleNaming,SingleB,1,1086.8,Older,1
3,glass.png,ACTION,drink,34,SingleNaming,SingleA,1,1117.8,Older,1
3,car.png,ACTION,drive,12,SingleNaming,SingleB,1,1121.2,Older,1
3,scissors.png,ACTION,cut,10,SingleNaming,SingleB,1,1149.3,Older,1
3,pen.png,ACTION,write,9,SingleNaming,SingleB,1,1159.8,Older,1
3,football.png,ACTION,kick,8,SingleNaming,SingleB,1,1176.6,Older,1
3,pool.png,ACTION,swim,11,SingleNaming,SingleB,1,1185.6,Older,1
3,chair.png,ACTION,sit,3,SingleNaming,SingleB,1,1207.1,Older,1
3,book.png,ACTION,read,127,switch,Dual,1,1207.1,Older,1
3,pool.png,ACTION,swim,31,SingleNaming,SingleA,1,1214.5,Older,1
3,book.png,ACTION,read,17,SingleNaming,SingleB,1,1215.7,Older,1
3,pen.png,ACTION,write,86,switch,Dual,3,1215.7,Older,0
3,book.png,ACTION,read,47,switch,Dual,1,1224.9,Older,1
3,bell.png,ACTION,ring,24,SingleNaming,SingleA,1,1227.5,Older,1
3,scissors.png,ACTION,cut,93,nonswitch,Dual,1,1230.9,Older,1
3,car.png,ACTION,drive,75,nonswitch,Dual,1,1232.9,Older,1
3,kettle.png,ACTION,boil,155,nonswitch,Dual,1,1237.2,Older,1
3,bell.png,ACTION,ring,68,nonswitch,Dual,1,1246.6,Older,1
3,bell.png,ACTION,ring,19,SingleNaming,SingleB,1,1258.6,Older,1
3,kettle.png,ACTION,boil,1,X,Dual,7,1258.6,Older,1
3,needle.png,ACTION,sew,21,SingleNaming,SingleA,1,1262.3,Older,1
3,pipe.png,ACTION,smoke,89,switch,Dual,1,1267.2,Older,1
3,shovel.png,ACTION,dig,118,switch,Dual,1,1271.5,Older,1
3,glass.png,ACTION,drink,120,nonswitch,Dual,1,1275.8,Older,1
3,axe.png,ACTION,chop,128,nonswitch,Dual,1,1283.1,Older,1
3,plane.png,ACTION,fly,58,switch,Dual,1,1284.4,Older,1
3,plane.png,ACTION,fly,13,SingleNaming,SingleB,1,1310.2,Older,1
3,shovel.png,ACTION,dig,20,SingleNaming,SingleB,1,1310.2,Older,1
3,car.png,ACTION,drive,61,switch,Dual,1,1310.2,Older,1
3,bed.png,ACTION,sleep,18,SingleNaming,SingleB,1,1316.3,Older,1
3,ladder.png,ACTION,climb,142,nonswitch,Dual,7,1316.6,Older,1
3,razor.png,ACTION,shave,39,SingleNaming,SingleA,1,1320.1,Older,1
3,pool.png,ACTION,swim,43,switch,Dual,1,1329.1,Older,1
3,car.png,ACTION,drive,32,SingleNaming,SingleA,1,1334.2,Older,1
3,plane.png,ACTION,fly,33,SingleNaming,SingleA,1,1344.4,Older,1
3,needle.png,ACTION,sew,40,nonswitch,Dual,1,1348.6,Older,1
3,shovel.png,ACTION,dig,71,switch,Dual,1,1350.9,Older,1
3,pipe.png,ACTION,smoke,28,SingleNaming,SingleA,1,1352,Older,1
3,bed.png,ACTION,sleep,78,switch,Dual,1,1356.6,Older,1
3,ladder.png,ACTION,climb,15,SingleNaming,SingleB,1,1357.4,Older,1
3,shovel.png,ACTION,dig,40,SingleNaming,SingleA,1,1357.7,Older,1
3,shovel.png,ACTION,dig,51,nonswitch,Dual,1,1364.9,Older,1
3,chair.png,ACTION,sit,144,nonswitch,Dual,1,1366,Older,1
3,ladder.png,ACTION,climb,79,nonswitch,Dual,1,1377.2,Older,1
3,scissors.png,ACTION,cut,154,switch,Dual,1,1383.2,Older,1
3,scissors.png,ACTION,cut,131,nonswitch,Dual,1,1409,Older,1
3,keyboard.png,ACTION,type,7,SingleNaming,SingleB,1,1413.3,Older,1
3,football.png,ACTION,kick,148,nonswitch,Dual,1,1413.3,Older,1
3,plane.png,ACTION,fly,147,nonswitch,Dual,1,1417.6,Older,1
3,kettle.png,ACTION,boil,25,SingleNaming,SingleA,1,1421.8,Older,1
3,glass.png,ACTION,drink,14,SingleNaming,SingleB,1,1430.5,Older,1
3,glass.png,ACTION,drink,16,switch,Dual,1,1431.1,Older,1
3,chair.png,ACTION,sit,9,switch,Dual,3,1435.5,Older,0
3,chair.png,ACTION,sit,32,nonswitch,Dual,1,1440.3,Older,1
3,ladder.png,ACTION,climb,102,switch,Dual,1,1447.3,Older,1
3,pen.png,ACTION,write,143,nonswitch,Dual,1,1490.6,Older,1
3,dart.png,ACTION,throw,4,SingleNaming,SingleB,1,1516.4,Older,1
3,car.png,ACTION,drive,107,switch,Dual,1,1516.4,Older,1
3,bed.png,ACTION,sleep,114,switch,Dual,1,1529.3,Older,1
3,keyboard.png,ACTION,type,112,nonswitch,Dual,1,1534.4,Older,1
3,needle.png,ACTION,sew,34,switch,Dual,1,1543.6,Older,1
3,razor.png,ACTION,shave,6,SingleNaming,SingleB,1,1546.4,Older,1
3,book.png,ACTION,read,28,nonswitch,Dual,1,1550.2,Older,1
3,razor.png,ACTION,shave,136,nonswitch,Dual,1,1550.7,Older,1
3,pool.png,ACTION,swim,138,switch,Dual,1,1555,Older,1
3,needle.png,ACTION,sew,16,SingleNaming,SingleB,1,1563.6,Older,1
3,plane.png,ACTION,fly,7,nonswitch,Dual,1,1581.8,Older,1
3,pipe.png,ACTION,smoke,17,nonswitch,Dual,1,1584.9,Older,1
3,kettle.png,ACTION,boil,81,X,Dual,7,1589.4,Older,1
3,glass.png,ACTION,drink,135,switch,Dual,1,1602.3,Older,1
3,axe.png,ACTION,chop,31,switch,Dual,1,1605.7,Older,1
3,pen.png,ACTION,write,27,switch,Dual,1,1620.1,Older,1
3,bell.png,ACTION,ring,146,switch,Dual,7,1628.1,Older,1
3,football.png,ACTION,kick,151,switch,Dual,1,1636.7,Older,1
3,dart.png,ACTION,throw,36,SingleNaming,SingleA,1,1640.7,Older,1
3,pen.png,ACTION,write,29,SingleNaming,SingleA,1,1641.3,Older,1
3,razor.png,ACTION,shave,67,nonswitch,Dual,1,1645.2,Older,1
3,kettle.png,ACTION,boil,62,nonswitch,Dual,1,1645.6,Older,1
3,bell.png,ACTION,ring,64,nonswitch,Dual,1,1696.4,Older,1
3,bell.png,ACTION,ring,22,switch,Dual,1,1739.8,Older,1
3,pool.png,ACTION,swim,98,nonswitch,Dual,1,1748.3,Older,1
3,football.png,ACTION,kick,35,SingleNaming,SingleA,1,1781.9,Older,1
3,razor.png,ACTION,shave,111,switch,Dual,1,1793.9,Older,1
3,pen.png,ACTION,write,18,nonswitch,Dual,1,1796.6,Older,1
3,dart.png,ACTION,throw,119,nonswitch,Dual,1,1799.9,Older,1
3,pipe.png,ACTION,smoke,66,switch,Dual,1,1812.8,Older,1
3,plane.png,ACTION,fly,130,switch,Dual,1,1843.2,Older,1
3,axe.png,ACTION,chop,56,nonswitch,Dual,1,1866,Older,1
3,keyboard.png,ACTION,type,97,nonswitch,Dual,1,1869,Older,1
3,keyboard.png,ACTION,type,108,nonswitch,Dual,1,1872.9,Older,1
3,scissors.png,ACTION,cut,6,switch,Dual,1,1883.5,Older,1
3,razor.png,ACTION,shave,50,switch,Dual,1,1886.3,Older,1
3,glass.png,ACTION,drink,10,nonswitch,Dual,7,1898.3,Older,1
3,football.png,ACTION,kick,55,switch,Dual,1,1906.7,Older,1
3,axe.png,ACTION,chop,2,SingleNaming,SingleB,1,1933.1,Older,1
3,pipe.png,ACTION,smoke,159,nonswitch,Dual,1,1943.5,Older,1
3,pool.png,ACTION,swim,39,nonswitch,Dual,1,1956.7,Older,1
3,shovel.png,ACTION,dig,96,switch,Dual,1,1988.3,Older,1
3,bed.png,ACTION,sleep,13,nonswitch,Dual,1,2010.4,Older,1
3,ladder.png,ACTION,climb,12,switch,Dual,1,2011.9,Older,1
3,needle.png,ACTION,sew,141,switch,Dual,3,2019,Older,0
3,needle.png,ACTION,sew,74,switch,Dual,1,2040.5,Older,1
3,dart.png,ACTION,throw,158,switch,Dual,1,2044.7,Older,1
3,dart.png,ACTION,throw,38,switch,Dual,1,2061.9,Older,1
3,bed.png,ACTION,sleep,82,nonswitch,Dual,1,2083.4,Older,1
3,axe.png,ACTION,chop,123,switch,Dual,1,2156.4,Older,1
3,book.png,ACTION,read,87,nonswitch,Dual,7,2169.3,Older,1
3,axe.png,ACTION,chop,22,SingleNaming,SingleA,1,2190.5,Older,1
3,pipe.png,ACTION,smoke,1,SingleNaming,SingleB,1,2358.3,Older,1
3,chair.png,ACTION,sit,92,switch,Dual,1,2414.2,Older,1
3,keyboard.png,ACTION,type,2,nonswitch,Dual,1,2444.2,Older,1
3,keyboard.png,ACTION,type,27,SingleNaming,SingleA,2,2458.1,Older,0
3,football.png,ACTION,kick,48,nonswitch,Dual,1,2718.2,Older,1
3,dart.png,ACTION,throw,63,nonswitch,Dual,1,2762.1,Older,1
3,glass.png,OBJECT,glass,23,SingleNaming,SingleB,1,741.5,Older,1
3,car.png,OBJECT,car,22,SingleNaming,SingleB,1,781.8,Older,1
3,bell.png,OBJECT,bell,36,SingleNaming,SingleB,1,879.4,Older,1
3,football.png,OBJECT,ball,33,SingleNaming,SingleB,1,919.3,Older,1
3,kettle.png,OBJECT,kettle,31,SingleNaming,SingleB,1,948.8,Older,1
3,chair.png,OBJECT,chair,8,SingleNaming,SingleA,1,974.5,Older,1
3,razor.png,OBJECT,razor,34,SingleNaming,SingleB,1,979.4,Older,1
3,car.png,OBJECT,car,42,nonswitch,Dual,1,1021.2,Older,1
3,pipe.png,OBJECT,pipe,15,SingleNaming,SingleA,1,1030.8,Older,1
3,kettle.png,OBJECT,kettle,13,SingleNaming,SingleA,1,1050.7,Older,1
3,pen.png,OBJECT,pen,38,SingleNaming,SingleB,1,1052.4,Older,1
3,ladder.png,OBJECT,ladder,19,SingleNaming,SingleA,1,1053.2,Older,1
3,plane.png,OBJECT,plane,26,SingleNaming,SingleB,1,1065.3,Older,1
3,dart.png,OBJECT,dart,122,nonswitch,Dual,7,1073.9,Older,1
3,book.png,OBJECT,book,5,SingleNaming,SingleA,1,1076.7,Older,1
3,glass.png,OBJECT,glass,117,nonswitch,Dual,1,1086.3,Older,1
3,pen.png,OBJECT,pen,6,SingleNaming,SingleA,1,1088.8,Older,1
3,chair.png,OBJECT,chair,37,SingleNaming,SingleB,1,1091.1,Older,1
3,glass.png,OBJECT,glass,14,SingleNaming,SingleA,1,1108.8,Older,1
3,razor.png,OBJECT,razor,16,SingleNaming,SingleA,1,1109.6,Older,1
3,car.png,OBJECT,car,10,SingleNaming,SingleA,1,1128.5,Older,1
3,shovel.png,OBJECT,shovel,29,SingleNaming,SingleB,2,1128.5,Older,0
3,bed.png,OBJECT,bed,7,SingleNaming,SingleA,1,1133.8,Older,1
3,scissors.png,OBJECT,scissors,18,SingleNaming,SingleA,1,1134.1,Older,1
3,pipe.png,OBJECT,pipe,21,SingleNaming,SingleB,1,1164.1,Older,1
3,pen.png,OBJECT,pen,125,nonswitch,Dual,1,1172.7,Older,1
3,scissors.png,OBJECT,scissors,24,SingleNaming,SingleB,1,1189.9,Older,1
3,needle.png,OBJECT,needle,27,SingleNaming,SingleB,1,1207.1,Older,1
3,keyboard.png,OBJECT,keyboard,28,SingleNaming,SingleB,1,1215.7,Older,1
3,football.png,OBJECT,ball,106,nonswitch,Dual,1,1223.2,Older,1
3,axe.png,OBJECT,axe,11,SingleNaming,SingleA,1,1241,Older,1
3,pipe.png,OBJECT,pipe,137,switch,Dual,1,1254.3,Older,1
3,bed.png,OBJECT,bed,32,SingleNaming,SingleB,1,1280.1,Older,1
3,dart.png,OBJECT,dart,40,SingleNaming,SingleB,1,1310.2,Older,1
3,football.png,OBJECT,ball,5,nonswitch,Dual,1,1315.9,Older,1
3,bell.png,OBJECT,bell,17,SingleNaming,SingleA,1,1327.1,Older,1
3,axe.png,OBJECT,axe,25,SingleNaming,SingleB,1,1344.6,Older,1
3,scissors.png,OBJECT,scissors,126,nonswitch,Dual,1,1348.8,Older,1
3,razor.png,OBJECT,razor,157,nonswitch,Dual,1,1363.3,Older,1
3,ladder.png,OBJECT,ladder,30,SingleNaming,SingleB,1,1370.3,Older,1
3,chair.png,OBJECT,chair,25,nonswitch,Dual,1,1377,Older,1
3,shovel.png,OBJECT,shovel,12,SingleNaming,SingleA,2,1380.5,Older,0
3,pool.png,OBJECT,pool,35,SingleNaming,SingleB,1,1387.5,Older,1
3,plane.png,OBJECT,plane,104,nonswitch,Dual,1,1387.5,Older,1
3,book.png,OBJECT,book,30,nonswitch,Dual,1,1399.1,Older,1
3,glass.png,OBJECT,glass,152,switch,Dual,1,1447.6,Older,1
3,razor.png,OBJECT,razor,99,switch,Dual,1,1456.2,Older,1
3,dart.png,OBJECT,dart,1,SingleNaming,SingleA,1,1476.6,Older,1
3,pipe.png,OBJECT,pipe,24,nonswitch,Dual,1,1484.4,Older,1
3,dart.png,OBJECT,dart,88,switch,Dual,1,1489.3,Older,1
3,scissors.png,OBJECT,scissors,37,nonswitch,Dual,1,1499.8,Older,1
3,pen.png,OBJECT,pen,33,switch,Dual,1,1508.6,Older,1
3,axe.png,OBJECT,axe,101,nonswitch,Dual,1,1520.7,Older,1
3,bed.png,OBJECT,bed,110,nonswitch,Dual,1,1537.9,Older,1
3,axe.png,OBJECT,axe,26,nonswitch,Dual,1,1538.7,Older,1
3,kettle.png,OBJECT,kettle,45,nonswitch,Dual,1,1544.6,Older,1
3,kettle.png,OBJECT,kettle,105,nonswitch,Dual,1,1546.4,Older,1
3,bed.png,OBJECT,bed,139,switch,Dual,1,1546.4,Older,1
3,pen.png,OBJECT,pen,46,nonswitch,Dual,1,1557.4,Older,1
3,book.png,OBJECT,book,150,nonswitch,Dual,1,1559.3,Older,1
3,bell.png,OBJECT,bell,116,nonswitch,Dual,1,1563.6,Older,1
3,pipe.png,OBJECT,pipe,95,nonswitch,Dual,1,1567.9,Older,1
3,book.png,OBJECT,book,39,SingleNaming,SingleB,1,1572.2,Older,1
3,chair.png,OBJECT,chair,124,switch,Dual,1,1589.4,Older,1
3,ladder.png,OBJECT,ladder,60,nonswitch,Dual,1,1593.7,Older,1
3,book.png,OBJECT,book,35,switch,Dual,1,1604.6,Older,1
3,needle.png,OBJECT,needle,9,SingleNaming,SingleA,1,1613.4,Older,1
3,pen.png,OBJECT,pen,91,switch,Dual,7,1623.8,Older,1
3,plane.png,OBJECT,plane,156,switch,Dual,1,1628.1,Older,1
3,axe.png,OBJECT,axe,52,switch,Dual,1,1630,Older,1
3,scissors.png,OBJECT,scissors,65,switch,Dual,1,1634.5,Older,1
3,bed.png,OBJECT,bed,54,nonswitch,Dual,1,1637.8,Older,1
3,glass.png,OBJECT,glass,21,nonswitch,Dual,1,1643.6,Older,1
3,razor.png,OBJECT,razor,70,nonswitch,Dual,1,1644,Older,1
3,car.png,OBJECT,car,103,switch,Dual,1,1679.6,Older,1
3,bed.png,OBJECT,bed,72,switch,Dual,1,1683.9,Older,1
3,chair.png,OBJECT,chair,85,nonswitch,Dual,7,1705.3,Older,1
3,chair.png,OBJECT,chair,19,switch,Dual,1,1707.1,Older,1
3,book.png,OBJECT,book,132,switch,Dual,1,1722.6,Older,1
3,bell.png,OBJECT,bell,15,nonswitch,Dual,1,1726.9,Older,1
3,plane.png,OBJECT,plane,53,nonswitch,Dual,1,1753.3,Older,1
3,axe.png,OBJECT,axe,145,switch,Dual,3,1761.2,Older,0
3,keyboard.png,OBJECT,keyboard,73,nonswitch,Dual,1,1761.3,Older,1
3,ladder.png,OBJECT,ladder,115,switch,Dual,1,1763.8,Older,1
3,needle.png,OBJECT,needle,133,nonswitch,Dual,1,1765.5,Older,1
3,glass.png,OBJECT,glass,41,X,Dual,7,1775.8,Older,1
3,kettle.png,OBJECT,kettle,76,switch,Dual,1,1778.4,Older,1
3,dart.png,OBJECT,dart,77,nonswitch,Dual,1,1812.8,Older,1
3,pool.png,OBJECT,pool,36,nonswitch,Dual,1,1824.7,Older,1
3,pool.png,OBJECT,pool,149,switch,Dual,1,1855.7,Older,1
3,bell.png,OBJECT,bell,59,switch,Dual,1,1860,Older,1
3,scissors.png,OBJECT,scissors,129,switch,Dual,1,1903,Older,1
3,keyboard.png,OBJECT,keyboard,153,nonswitch,Dual,1,1915.9,Older,1
3,football.png,OBJECT,ball,14,switch,Dual,1,1945.9,Older,1
3,pool.png,OBJECT,pool,49,switch,Dual,1,1982.1,Older,1
3,plane.png,OBJECT,plane,44,switch,Dual,1,1992.6,Older,1
3,ladder.png,OBJECT,ladder,100,nonswitch,Dual,1,2001.8,Older,1
3,needle.png,OBJECT,needle,20,nonswitch,Dual,1,2053.3,Older,1
3,shovel.png,OBJECT,shovel,4,nonswitch,Dual,2,2066.2,Older,0
3,bell.png,OBJECT,bell,94,switch,Dual,1,2083.4,Older,1
3,plane.png,OBJECT,plane,20,SingleNaming,SingleA,1,2088,Older,1
3,keyboard.png,OBJECT,keyboard,3,SingleNaming,SingleA,1,2089.9,Older,1
3,needle.png,OBJECT,needle,8,switch,Dual,1,2091.4,Older,1
3,razor.png,OBJECT,razor,57,switch,Dual,1,2096.3,Older,1
3,car.png,OBJECT,car,3,switch,Dual,1,2110.2,Older,1
3,ladder.png,OBJECT,ladder,29,switch,Dual,1,2245.1,Older,1
3,shovel.png,OBJECT,shovel,80,switch,Dual,2,2286.1,Older,0
3,shovel.png,OBJECT,shovel,109,switch,Dual,2,2336.9,Older,0
3,pool.png,OBJECT,pool,4,SingleNaming,SingleA,1,2432.2,Older,1
3,kettle.png,OBJECT,kettle,160,switch,Dual,1,2504.4,Older,1
3,shovel.png,OBJECT,shovel,134,nonswitch,Dual,2,2560.2,Older,0
3,pipe.png,OBJECT,pipe,11,switch,Dual,1,2590.3,Older,1
3,needle.png,OBJECT,needle,113,switch,Dual,1,2712.6,Older,1
3,dart.png,OBJECT,dart,69,switch,Dual,1,2723.5,Older,1
3,keyboard.png,OBJECT,keyboard,23,switch,Dual,1,2818.8,Older,1
3,pool.png,OBJECT,pool,140,nonswitch,Dual,1,2882.4,Older,1
3,keyboard.png,OBJECT,keyboard,83,switch,Dual,1,2883.9,Older,1
3,football.png,OBJECT,ball,2,SingleNaming,SingleA,1,2975,Older,1
3,car.png,OBJECT,car,84,nonswitch,Dual,0,,Older,0
3,football.png,OBJECT,ball,121,X,Dual,0,,Older,0
4,ladder.png,ACTION,climb,36,SingleNaming,SingleB,1,862.8,Older,1
4,plane.png,ACTION,fly,23,SingleNaming,SingleB,1,1028.3,Older,1
4,bed.png,ACTION,sleep,27,SingleNaming,SingleB,1,1076.6,Older,1
4,car.png,ACTION,drive,115,switch,Dual,1,1080.9,Older,1
4,pool.png,ACTION,swim,24,SingleNaming,SingleB,1,1088,Older,1
4,pipe.png,ACTION,smoke,29,SingleNaming,SingleB,1,1096.5,Older,1
4,car.png,ACTION,drive,78,switch,Dual,1,1122.1,Older,1
4,bed.png,ACTION,sleep,143,nonswitch,Dual,1,1130.7,Older,1
4,football.png,ACTION,kick,35,SingleNaming,SingleB,1,1139.4,Older,1
4,pen.png,ACTION,write,62,switch,Dual,1,1147.8,Older,1
4,pool.png,ACTION,swim,155,switch,Dual,1,1160.2,Older,1
4,book.png,ACTION,read,142,switch,Dual,1,1160.5,Older,1
4,chair.png,ACTION,sit,147,nonswitch,Dual,1,1164.8,Older,1
4,needle.png,ACTION,sew,5,SingleNaming,SingleA,1,1169.1,Older,1
4,pipe.png,ACTION,smoke,153,nonswitch,Dual,1,1174.5,Older,1
4,keyboard.png,ACTION,type,28,SingleNaming,SingleB,1,1177.6,Older,1
4,book.png,ACTION,read,32,SingleNaming,SingleB,1,1177.6,Older,1
4,bell.png,ACTION,ring,14,switch,Dual,1,1185.9,Older,1
4,bed.png,ACTION,sleep,75,switch,Dual,1,1186.1,Older,1
4,book.png,ACTION,read,67,nonswitch,Dual,1,1209.2,Older,1
4,book.png,ACTION,read,35,switch,Dual,1,1214.9,Older,1
4,pen.png,ACTION,write,31,SingleNaming,SingleB,1,1233.1,Older,1
4,bell.png,ACTION,ring,122,nonswitch,Dual,1,1237.3,Older,1
4,pen.png,ACTION,write,136,nonswitch,Dual,1,1245.9,Older,1
4,needle.png,ACTION,sew,144,nonswitch,Dual,1,1262.9,Older,1
4,bell.png,ACTION,ring,94,switch,Dual,1,1264.1,Older,1
4,dart.png,ACTION,throw,95,nonswitch,Dual,1,1267.2,Older,1
4,razor.png,ACTION,shave,71,switch,Dual,1,1274.1,Older,1
4,kettle.png,ACTION,boil,25,SingleNaming,SingleB,1,1275.7,Older,1
4,axe.png,ACTION,chop,39,SingleNaming,SingleB,1,1275.7,Older,1
4,chair.png,ACTION,sit,73,nonswitch,Dual,1,1281.7,Older,1
4,car.png,ACTION,drive,37,SingleNaming,SingleB,1,1288.5,Older,1
4,needle.png,ACTION,sew,30,SingleNaming,SingleB,1,1297.1,Older,1
4,scissors.png,ACTION,cut,40,SingleNaming,SingleB,1,1297.1,Older,1
4,glass.png,ACTION,drink,21,SingleNaming,SingleB,1,1300.9,Older,1
4,ladder.png,ACTION,climb,64,nonswitch,Dual,1,1309,Older,1
4,pen.png,ACTION,write,98,switch,Dual,1,1311.5,Older,1
4,keyboard.png,ACTION,type,119,nonswitch,Dual,1,1311.7,Older,1
4,dart.png,ACTION,throw,22,SingleNaming,SingleB,1,1331.3,Older,1
4,bell.png,ACTION,ring,33,SingleNaming,SingleB,1,1356.8,Older,1
4,axe.png,ACTION,chop,102,nonswitch,Dual,1,1358.1,Older,1
4,glass.png,ACTION,drink,2,switch,Dual,1,1372.9,Older,1
4,plane.png,ACTION,fly,140,nonswitch,Dual,1,1373.9,Older,1
4,football.png,ACTION,kick,148,nonswitch,Dual,1,1419.8,Older,1
4,chair.png,ACTION,sit,34,SingleNaming,SingleB,1,1420.8,Older,1
4,pool.png,ACTION,swim,68,nonswitch,Dual,1,1421,Older,1
4,axe.png,ACTION,chop,59,switch,Dual,1,1421.6,Older,1
4,razor.png,ACTION,shave,26,SingleNaming,SingleB,1,1433.6,Older,1
4,razor.png,ACTION,shave,89,switch,Dual,1,1454.9,Older,1
4,scissors.png,ACTION,cut,151,switch,Dual,1,1459.2,Older,1
4,glass.png,ACTION,drink,33,nonswitch,Dual,1,1465.1,Older,1
4,chair.png,ACTION,sit,118,switch,Dual,1,1472,Older,1
4,shovel.png,ACTION,dig,52,switch,Dual,1,1476.3,Older,1
4,car.png,ACTION,drive,108,nonswitch,Dual,1,1480.5,Older,1
4,scissors.png,ACTION,cut,112,nonswitch,Dual,1,1506.1,Older,1
4,keyboard.png,ACTION,type,42,nonswitch,Dual,1,1514.7,Older,1
4,glass.png,ACTION,drink,82,switch,Dual,1,1516,Older,1
4,ladder.png,ACTION,climb,101,switch,Dual,1,1527.5,Older,1
4,keyboard.png,ACTION,type,139,switch,Dual,1,1548.6,Older,1
4,car.png,ACTION,drive,57,nonswitch,Dual,1,1555.4,Older,1
4,pipe.png,ACTION,smoke,111,switch,Dual,1,1557.3,Older,1
4,shovel.png,ACTION,dig,38,SingleNaming,SingleB,1,1559.9,Older,1
4,book.png,ACTION,read,113,nonswitch,Dual,1,1561.6,Older,1
4,plane.png,ACTION,fly,56,nonswitch,Dual,1,1562.1,Older,1
4,bed.png,ACTION,sleep,22,nonswitch,Dual,7,1565.9,Older,1
4,ladder.png,ACTION,climb,137,nonswitch,Dual,1,1567.6,Older,1
4,pen.png,ACTION,write,18,switch,Dual,1,1574.4,Older,1
4,kettle.png,ACTION,boil,87,nonswitch,Dual,1,1606.9,Older,1
4,kettle.png,ACTION,boil,121,X,Dual,7,1612.8,Older,1
4,needle.png,ACTION,sew,158,switch,Dual,1,1621.3,Older,1
4,shovel.png,ACTION,dig,32,nonswitch,Dual,7,1621.3,Older,1
4,pool.png,ACTION,swim,129,nonswitch,Dual,1,1623.9,Older,1
4,needle.png,ACTION,sew,48,nonswitch,Dual,1,1650.3,Older,1
4,pipe.png,ACTION,smoke,11,SingleNaming,SingleA,1,1657,Older,1
4,dart.png,ACTION,throw,86,switch,Dual,1,1724,Older,1
4,pipe.png,ACTION,smoke,15,nonswitch,Dual,1,1740.8,Older,1
4,ladder.png,ACTION,climb,13,SingleNaming,SingleA,1,1783.5,Older,1
4,scissors.png,ACTION,cut,7,SingleNaming,SingleA,1,1787.7,Older,1
4,needle.png,ACTION,sew,55,switch,Dual,1,1790,Older,1
4,glass.png,ACTION,drink,128,nonswitch,Dual,1,1821.9,Older,1
4,bed.png,ACTION,sleep,107,switch,Dual,1,1822.4,Older,1
4,axe.png,ACTION,chop,127,switch,Dual,1,1843.9,Older,1
4,football.png,ACTION,kick,135,switch,Dual,1,1850.1,Older,1
4,bell.png,ACTION,ring,7,nonswitch,Dual,1,1966.9,Older,1
4,razor.png,ACTION,shave,152,nonswitch,Dual,1,1981.3,Older,1
4,axe.png,ACTION,chop,72,nonswitch,Dual,1,1985.5,Older,1
4,plane.png,ACTION,fly,146,switch,Dual,1,2043.7,Older,1
4,keyboard.png,ACTION,type,19,SingleNaming,SingleA,1,2047.5,Older,1
4,scissors.png,ACTION,cut,60,nonswitch,Dual,1,2047.8,Older,1
4,shovel.png,ACTION,dig,132,switch,Dual,1,2069.3,Older,1
4,dart.png,ACTION,throw,4,SingleNaming,SingleA,1,2105.6,Older,1
4,shovel.png,ACTION,dig,3,SingleNaming,SingleA,1,2135,Older,1
4,keyboard.png,ACTION,type,66,switch,Dual,1,2141.8,Older,1
4,pool.png,ACTION,swim,41,X,Dual,7,2141.9,Older,1
4,pen.png,ACTION,write,18,SingleNaming,SingleA,1,2175.4,Older,1
4,football.png,ACTION,kick,47,switch,Dual,1,2195.8,Older,1
4,bed.png,ACTION,sleep,16,SingleNaming,SingleA,1,2269.9,Older,1
4,razor.png,ACTION,shave,49,nonswitch,Dual,1,2329.6,Older,1
4,razor.png,ACTION,shave,17,SingleNaming,SingleA,1,2355.2,Older,1
4,axe.png,ACTION,chop,14,SingleNaming,SingleA,1,2378.5,Older,1
4,pipe.png,ACTION,smoke,9,switch,Dual,1,2380.8,Older,1
4,football.png,ACTION,kick,28,nonswitch,Dual,1,2419.2,Older,1
4,ladder.png,ACTION,climb,6,switch,Dual,1,2425.6,Older,1
4,shovel.png,ACTION,dig,159,nonswitch,Dual,1,2470.4,Older,1
4,dart.png,ACTION,throw,39,nonswitch,Dual,1,2508.8,Older,1
4,bell.png,ACTION,ring,1,SingleNaming,SingleA,1,2525.9,Older,1
4,scissors.png,ACTION,cut,63,nonswitch,Dual,1,2525.9,Older,1
4,car.png,ACTION,drive,9,SingleNaming,SingleA,1,2688,Older,1
4,chair.png,ACTION,sit,10,SingleNaming,SingleA,1,2697.9,Older,1
4,pool.png,ACTION,swim,2,SingleNaming,SingleA,1,2862.9,Older,1
4,kettle.png,ACTION,boil,79,nonswitch,Dual,1,2946.8,Older,1
4,chair.png,ACTION,sit,27,switch,Dual,1,3101.9,Older,1
4,plane.png,ACTION,fly,38,switch,Dual,1,3121.6,Older,1
4,book.png,ACTION,read,6,SingleNaming,SingleA,0,,Older,0
4,glass.png,ACTION,drink,8,SingleNaming,SingleA,0,,Older,0
4,football.png,ACTION,kick,12,SingleNaming,SingleA,0,,Older,0
4,kettle.png,ACTION,boil,15,SingleNaming,SingleA,0,,Older,0
4,plane.png,ACTION,fly,20,SingleNaming,SingleA,0,,Older,0
4,kettle.png,ACTION,boil,21,switch,Dual,0,,Older,0
4,dart.png,ACTION,throw,31,switch,Dual,0,,Older,0
4,car.png,OBJECT,car,19,SingleNaming,SingleB,1,968.5,Older,1
4,chair.png,OBJECT,chair,14,SingleNaming,SingleB,1,998.4,Older,1
4,ladder.png,OBJECT,ladder,33,SingleNaming,SingleA,1,1027.5,Older,1
4,car.png,OBJECT,car,106,nonswitch,Dual,1,1058.1,Older,1
4,dart.png,OBJECT,dart,37,SingleNaming,SingleA,1,1059,Older,1
4,football.png,OBJECT,ball,17,SingleNaming,SingleB,1,1062.4,Older,1
4,glass.png,OBJECT,glass,15,SingleNaming,SingleB,1,1105.1,Older,1
4,chair.png,OBJECT,chair,17,nonswitch,Dual,1,1121.9,Older,1
4,football.png,OBJECT,ball,116,switch,Dual,1,1128.3,Older,1
4,glass.png,OBJECT,glass,120,switch,Dual,1,1133.5,Older,1
4,car.png,OBJECT,car,88,switch,Dual,1,1147.7,Older,1
4,bed.png,OBJECT,bed,104,nonswitch,Dual,1,1169.4,Older,1
4,kettle.png,OBJECT,kettle,34,SingleNaming,SingleA,1,1185.4,Older,1
4,glass.png,OBJECT,glass,40,SingleNaming,SingleA,1,1194.7,Older,1
4,book.png,OBJECT,book,154,switch,Dual,1,1199.2,Older,1
4,dart.png,OBJECT,dart,77,nonswitch,Dual,1,1203.1,Older,1
4,kettle.png,OBJECT,kettle,124,nonswitch,Dual,1,1228.7,Older,1
4,pool.png,OBJECT,pool,16,SingleNaming,SingleB,1,1228.8,Older,1
4,kettle.png,OBJECT,kettle,20,SingleNaming,SingleB,1,1233.1,Older,1
4,dart.png,OBJECT,dart,100,nonswitch,Dual,1,1245.9,Older,1
4,kettle.png,OBJECT,kettle,46,nonswitch,Dual,7,1267.2,Older,1
4,book.png,OBJECT,book,54,nonswitch,Dual,1,1275.9,Older,1
4,keyboard.png,OBJECT,keyboard,29,SingleNaming,SingleA,1,1277.4,Older,1
4,pen.png,OBJECT,pen,157,nonswitch,Dual,1,1280,Older,1
4,needle.png,OBJECT,needle,35,SingleNaming,SingleA,1,1280.5,Older,1
4,football.png,OBJECT,ball,131,nonswitch,Dual,1,1285.6,Older,1
4,keyboard.png,OBJECT,keyboard,93,nonswitch,Dual,1,1290.5,Older,1
4,ladder.png,OBJECT,ladder,141,switch,Dual,1,1297.1,Older,1
4,keyboard.png,OBJECT,keyboard,5,SingleNaming,SingleB,1,1305.5,Older,1
4,plane.png,OBJECT,plane,28,SingleNaming,SingleA,1,1305.6,Older,1
4,ladder.png,OBJECT,ladder,110,nonswitch,Dual,1,1305.6,Older,1
4,glass.png,OBJECT,glass,97,nonswitch,Dual,1,1309.9,Older,1
4,bed.png,OBJECT,bed,149,switch,Dual,1,1315.8,Older,1
4,pen.png,OBJECT,pen,12,SingleNaming,SingleB,1,1316.9,Older,1
4,razor.png,OBJECT,razor,61,switch,Dual,1,1320.7,Older,1
4,bed.png,OBJECT,bed,44,nonswitch,Dual,1,1331.1,Older,1
4,pen.png,OBJECT,pen,90,switch,Dual,1,1331.2,Older,1
4,glass.png,OBJECT,glass,20,nonswitch,Dual,1,1332.3,Older,1
4,plane.png,OBJECT,plane,6,SingleNaming,SingleB,1,1344,Older,1
4,pool.png,OBJECT,pool,114,switch,Dual,1,1348.3,Older,1
4,book.png,OBJECT,book,39,SingleNaming,SingleA,1,1352.5,Older,1
4,football.png,OBJECT,ball,11,nonswitch,Dual,1,1352.6,Older,1
4,kettle.png,OBJECT,kettle,130,switch,Dual,1,1354.5,Older,1
4,bed.png,OBJECT,bed,4,SingleNaming,SingleB,1,1399.5,Older,1
4,bell.png,OBJECT,bell,18,SingleNaming,SingleB,1,1399.5,Older,1
4,pen.png,OBJECT,pen,31,SingleNaming,SingleA,1,1399.5,Older,1
4,plane.png,OBJECT,plane,51,nonswitch,Dual,1,1415.2,Older,1
4,scissors.png,OBJECT,scissors,13,SingleNaming,SingleB,1,1416.5,Older,1
4,bell.png,OBJECT,bell,27,SingleNaming,SingleA,1,1421.7,Older,1
4,scissors.png,OBJECT,scissors,91,nonswitch,Dual,1,1425.3,Older,1
4,scissors.png,OBJECT,scissors,36,SingleNaming,SingleA,1,1437.8,Older,1
4,ladder.png,OBJECT,ladder,2,SingleNaming,SingleB,1,1446.3,Older,1
4,pen.png,OBJECT,pen,1,X,Dual,7,1450.7,Older,1
4,chair.png,OBJECT,chair,81,X,Dual,7,1450.7,Older,1
4,ladder.png,OBJECT,ladder,80,switch,Dual,1,1459.2,Older,1
4,needle.png,OBJECT,needle,40,switch,Dual,1,1472,Older,1
4,dart.png,OBJECT,dart,74,switch,Dual,1,1480.5,Older,1
4,pipe.png,OBJECT,pipe,11,SingleNaming,SingleB,1,1484.8,Older,1
4,keyboard.png,OBJECT,keyboard,96,switch,Dual,1,1484.8,Older,1
4,kettle.png,OBJECT,kettle,8,switch,Dual,1,1487.4,Older,1
4,shovel.png,OBJECT,shovel,105,nonswitch,Dual,2,1489.5,Older,0
4,scissors.png,OBJECT,scissors,12,nonswitch,Dual,1,1506.1,Older,1
4,glass.png,OBJECT,glass,43,switch,Dual,1,1509.6,Older,1
4,scissors.png,OBJECT,scissors,19,switch,Dual,1,1518.6,Older,1
4,razor.png,OBJECT,razor,36,switch,Dual,1,1527.5,Older,1
4,football.png,OBJECT,ball,26,SingleNaming,SingleA,1,1527.6,Older,1
4,needle.png,OBJECT,needle,160,switch,Dual,1,1544.5,Older,1
4,pool.png,OBJECT,pool,26,nonswitch,Dual,1,1552.6,Older,1
4,car.png,OBJECT,car,37,nonswitch,Dual,1,1553.1,Older,1
4,pipe.png,OBJECT,pipe,109,switch,Dual,1,1557.3,Older,1
4,shovel.png,OBJECT,shovel,99,switch,Dual,2,1562.8,Older,0
4,pipe.png,OBJECT,pipe,13,nonswitch,Dual,1,1565.9,Older,1
4,shovel.png,OBJECT,shovel,8,SingleNaming,SingleB,2,1565.9,Older,0
4,needle.png,OBJECT,needle,45,nonswitch,Dual,3,1570.1,Older,0
4,scissors.png,OBJECT,scissors,138,switch,Dual,1,1591.5,Older,1
4,chair.png,OBJECT,chair,123,switch,Dual,1,1604.3,Older,1
4,razor.png,OBJECT,razor,9,SingleNaming,SingleB,1,1625.6,Older,1
4,car.png,OBJECT,car,32,SingleNaming,SingleA,1,1641.4,Older,1
4,car.png,OBJECT,car,76,switch,Dual,1,1647.1,Older,1
4,chair.png,OBJECT,chair,58,switch,Dual,1,1668.8,Older,1
4,pipe.png,OBJECT,pipe,85,nonswitch,Dual,1,1672.9,Older,1
4,bed.png,OBJECT,bed,53,switch,Dual,1,1681.1,Older,1
4,shovel.png,OBJECT,shovel,38,SingleNaming,SingleA,2,1689,Older,0
4,plane.png,OBJECT,plane,69,switch,Dual,1,1706.7,Older,1
4,book.png,OBJECT,book,126,nonswitch,Dual,1,1711.1,Older,1
4,pool.png,OBJECT,pool,3,switch,Dual,1,1732.3,Older,1
4,razor.png,OBJECT,razor,24,nonswitch,Dual,1,1748.6,Older,1
4,book.png,OBJECT,book,7,SingleNaming,SingleB,1,1753.6,Older,1
4,razor.png,OBJECT,razor,22,SingleNaming,SingleA,1,1765.4,Older,1
4,needle.png,OBJECT,needle,92,nonswitch,Dual,1,1783.5,Older,1
4,bell.png,OBJECT,bell,103,switch,Dual,1,1808.4,Older,1
4,axe.png,OBJECT,axe,145,switch,Dual,1,1810.7,Older,1
4,ladder.png,OBJECT,ladder,25,nonswitch,Dual,1,1813.3,Older,1
4,bell.png,OBJECT,bell,125,nonswitch,Dual,1,1818.4,Older,1
4,plane.png,OBJECT,plane,150,nonswitch,Dual,1,1834.7,Older,1
4,axe.png,OBJECT,axe,10,SingleNaming,SingleB,1,1843.2,Older,1
4,pool.png,OBJECT,pool,117,nonswitch,Dual,1,1868.8,Older,1
4,plane.png,OBJECT,plane,156,switch,Dual,1,1877.3,Older,1
4,chair.png,OBJECT,chair,21,SingleNaming,SingleA,1,1884.5,Older,1
4,needle.png,OBJECT,needle,3,SingleNaming,SingleB,1,1902.9,Older,1
4,keyboard.png,OBJECT,keyboard,34,switch,Dual,1,1945.6,Older,1
4,shovel.png,OBJECT,shovel,4,nonswitch,Dual,2,1953.8,Older,0
4,football.png,OBJECT,ball,65,switch,Dual,1,1988.3,Older,1
4,pen.png,OBJECT,pen,83,switch,Dual,1,1988.3,Older,1
4,razor.png,OBJECT,razor,84,nonswitch,Dual,1,2001.5,Older,1
4,pool.png,OBJECT,pool,23,SingleNaming,SingleA,1,2037.2,Older,1
4,dart.png,OBJECT,dart,1,SingleNaming,SingleB,1,2073.6,Older,1
4,bell.png,OBJECT,bell,16,switch,Dual,1,2107.7,Older,1
4,axe.png,OBJECT,axe,134,nonswitch,Dual,1,2125.7,Older,1
4,shovel.png,OBJECT,shovel,50,switch,Dual,2,2141.9,Older,0
4,axe.png,OBJECT,axe,23,switch,Dual,1,2257.1,Older,1
4,bell.png,OBJECT,bell,70,nonswitch,Dual,1,2264.4,Older,1
4,pipe.png,OBJECT,pipe,24,SingleNaming,SingleA,1,2381.7,Older,1
4,keyboard.png,OBJECT,keyboard,5,nonswitch,Dual,1,2436.3,Older,1
4,bed.png,OBJECT,bed,25,SingleNaming,SingleA,1,2436.5,Older,1
4,book.png,OBJECT,book,10,switch,Dual,1,2453.6,Older,1
4,dart.png,OBJECT,dart,133,switch,Dual,1,2466.1,Older,1
4,pipe.png,OBJECT,pipe,29,switch,Dual,1,2597.5,Older,1
4,axe.png,OBJECT,axe,30,nonswitch,Dual,0,,Older,0
4,axe.png,OBJECT,axe,30,SingleNaming,SingleA,0,,Older,0
5,glass.png,ACTION,drink,14,SingleNaming,SingleB,1,720.4,Older,1
5,bell.png,ACTION,ring,19,SingleNaming,SingleB,1,751.2,Older,1
5,ladder.png,ACTION,climb,15,SingleNaming,SingleB,1,800.4,Older,1
5,book.png,ACTION,read,37,SingleNaming,SingleA,1,808.9,Older,1
5,book.png,ACTION,read,17,SingleNaming,SingleB,1,811.2,Older,1
5,needle.png,ACTION,sew,16,SingleNaming,SingleB,1,825.2,Older,1
5,bell.png,ACTION,ring,68,nonswitch,Dual,1,837,Older,1
5,bed.png,ACTION,sleep,82,nonswitch,Dual,1,840.4,Older,1
5,glass.png,ACTION,drink,120,nonswitch,Dual,1,865.7,Older,1
5,kettle.png,ACTION,boil,5,SingleNaming,SingleB,1,867.4,Older,1
5,plane.png,ACTION,fly,147,nonswitch,Dual,1,875.5,Older,1
5,plane.png,ACTION,fly,13,SingleNaming,SingleB,1,886.4,Older,1
5,bell.png,ACTION,ring,24,SingleNaming,SingleA,1,898.8,Older,1
5,ladder.png,ACTION,climb,26,SingleNaming,SingleA,1,902.7,Older,1
5,car.png,ACTION,drive,90,nonswitch,Dual,1,914,Older,1
5,book.png,ACTION,read,127,switch,Dual,1,915,Older,1
5,scissors.png,ACTION,cut,10,SingleNaming,SingleB,1,932,Older,1
5,bed.png,ACTION,sleep,18,SingleNaming,SingleB,1,940.8,Older,1
5,bell.png,ACTION,ring,64,nonswitch,Dual,1,943.9,Older,1
5,glass.png,ACTION,drink,135,switch,Dual,1,958.1,Older,1
5,car.png,ACTION,drive,12,SingleNaming,SingleB,1,961,Older,1
5,plane.png,ACTION,fly,33,SingleNaming,SingleA,1,962.7,Older,1
5,pipe.png,ACTION,smoke,28,SingleNaming,SingleA,1,965.1,Older,1
5,book.png,ACTION,read,87,nonswitch,Dual,1,969.3,Older,1
5,keyboard.png,ACTION,type,7,SingleNaming,SingleB,1,972.8,Older,1
5,car.png,ACTION,drive,75,nonswitch,Dual,1,985.5,Older,1
5,kettle.png,ACTION,boil,155,nonswitch,Dual,1,985.8,Older,1
5,scissors.png,ACTION,cut,30,SingleNaming,SingleA,1,990.1,Older,1
5,football.png,ACTION,kick,151,switch,Dual,1,992.4,Older,1
5,book.png,ACTION,read,28,nonswitch,Dual,1,997.9,Older,1
5,glass.png,ACTION,drink,34,SingleNaming,SingleA,1,1006.7,Older,1
5,football.png,ACTION,kick,8,SingleNaming,SingleB,1,1014.2,Older,1
5,needle.png,ACTION,sew,74,switch,Dual,1,1019.2,Older,1
5,ladder.png,ACTION,climb,79,nonswitch,Dual,1,1019.2,Older,1
5,pen.png,ACTION,write,9,SingleNaming,SingleB,1,1023.3,Older,1
5,shovel.png,ACTION,dig,118,switch,Dual,1,1035.2,Older,1
5,plane.png,ACTION,fly,130,switch,Dual,1,1037.4,Older,1
5,kettle.png,ACTION,boil,25,SingleNaming,SingleA,1,1040,Older,1
5,dart.png,ACTION,throw,4,SingleNaming,SingleB,1,1045,Older,1
5,ladder.png,ACTION,climb,142,nonswitch,Dual,1,1052.5,Older,1
5,plane.png,ACTION,fly,7,nonswitch,Dual,1,1056.6,Older,1
5,car.png,ACTION,drive,32,SingleNaming,SingleA,1,1063.3,Older,1
5,needle.png,ACTION,sew,40,nonswitch,Dual,1,1068.4,Older,1
5,razor.png,ACTION,shave,39,SingleNaming,SingleA,1,1077.4,Older,1
5,shovel.png,ACTION,dig,71,switch,Dual,1,1080.3,Older,1
5,pen.png,ACTION,write,29,SingleNaming,SingleA,1,1084.9,Older,1
5,book.png,ACTION,read,47,switch,Dual,1,1085.5,Older,1
5,needle.png,ACTION,sew,21,SingleNaming,SingleA,1,1095.8,Older,1
5,pool.png,ACTION,swim,11,SingleNaming,SingleB,1,1099.6,Older,1
5,keyboard.png,ACTION,type,112,nonswitch,Dual,1,1108.4,Older,1
5,chair.png,ACTION,sit,23,SingleNaming,SingleA,1,1152.3,Older,1
5,pipe.png,ACTION,smoke,17,nonswitch,Dual,1,1160.2,Older,1
5,bed.png,ACTION,sleep,38,SingleNaming,SingleA,1,1161.5,Older,1
5,football.png,ACTION,kick,55,switch,Dual,1,1163.3,Older,1
5,football.png,ACTION,kick,148,nonswitch,Dual,1,1168.7,Older,1
5,kettle.png,ACTION,boil,62,nonswitch,Dual,1,1173.1,Older,1
5,razor.png,ACTION,shave,67,nonswitch,Dual,1,1193,Older,1
5,glass.png,ACTION,drink,10,nonswitch,Dual,1,1203,Older,1
5,car.png,ACTION,drive,107,switch,Dual,1,1205.5,Older,1
5,shovel.png,ACTION,dig,40,SingleNaming,SingleA,1,1207.6,Older,1
5,keyboard.png,ACTION,type,108,nonswitch,Dual,1,1212.8,Older,1
5,razor.png,ACTION,shave,50,switch,Dual,1,1227.2,Older,1
5,shovel.png,ACTION,dig,51,nonswitch,Dual,1,1237.7,Older,1
5,chair.png,ACTION,sit,144,nonswitch,Dual,1,1239.7,Older,1
5,car.png,ACTION,drive,61,switch,Dual,1,1243.8,Older,1
5,pool.png,ACTION,swim,39,nonswitch,Dual,1,1244.5,Older,1
5,axe.png,ACTION,chop,22,SingleNaming,SingleA,2,1248,Older,0
5,bell.png,ACTION,ring,22,switch,Dual,1,1260.2,Older,1
5,keyboard.png,ACTION,type,97,nonswitch,Dual,1,1264.6,Older,1
5,razor.png,ACTION,shave,136,nonswitch,Dual,1,1264.6,Older,1
5,scissors.png,ACTION,cut,154,switch,Dual,1,1267.8,Older,1
5,needle.png,ACTION,sew,141,switch,Dual,1,1281.3,Older,1
5,pool.png,ACTION,swim,138,switch,Dual,1,1284,Older,1
5,chair.png,ACTION,sit,92,switch,Dual,1,1284.3,Older,1
5,football.png,ACTION,kick,35,SingleNaming,SingleA,1,1289.6,Older,1
5,bed.png,ACTION,sleep,78,switch,Dual,1,1299,Older,1
5,kettle.png,ACTION,boil,1,X,Dual,7,1305.1,Older,1
5,bed.png,ACTION,sleep,13,nonswitch,Dual,1,1316.2,Older,1
5,razor.png,ACTION,shave,6,SingleNaming,SingleB,1,1317,Older,1
5,shovel.png,ACTION,dig,20,SingleNaming,SingleB,1,1317.1,Older,1
5,plane.png,ACTION,fly,58,switch,Dual,1,1318.7,Older,1
5,pipe.png,ACTION,smoke,1,SingleNaming,SingleB,1,1322.9,Older,1
5,dart.png,ACTION,throw,119,nonswitch,Dual,1,1329.9,Older,1
5,dart.png,ACTION,throw,36,SingleNaming,SingleA,1,1331.2,Older,1
5,pool.png,ACTION,swim,43,switch,Dual,1,1341.7,Older,1
5,chair.png,ACTION,sit,32,nonswitch,Dual,1,1342.4,Older,1
5,pipe.png,ACTION,smoke,159,nonswitch,Dual,1,1349.9,Older,1
5,ladder.png,ACTION,climb,12,switch,Dual,1,1364.6,Older,1
5,pool.png,ACTION,swim,31,SingleNaming,SingleA,1,1367.3,Older,1
5,axe.png,ACTION,chop,56,nonswitch,Dual,2,1385.3,Older,0
5,razor.png,ACTION,shave,111,switch,Dual,1,1410.2,Older,1
5,pipe.png,ACTION,smoke,89,switch,Dual,1,1430.5,Older,1
5,dart.png,ACTION,throw,38,switch,Dual,1,1443.6,Older,1
5,scissors.png,ACTION,cut,93,nonswitch,Dual,1,1459.2,Older,1
5,axe.png,ACTION,chop,2,SingleNaming,SingleB,2,1471.2,Older,0
5,bell.png,ACTION,ring,146,switch,Dual,1,1492,Older,1
5,pipe.png,ACTION,smoke,66,switch,Dual,1,1535.8,Older,1
5,chair.png,ACTION,sit,3,SingleNaming,SingleB,1,1536.2,Older,1
5,scissors.png,ACTION,cut,6,switch,Dual,1,1548.9,Older,1
5,pen.png,ACTION,write,143,nonswitch,Dual,1,1580.8,Older,1
5,glass.png,ACTION,drink,16,switch,Dual,1,1588.7,Older,1
5,football.png,ACTION,kick,48,nonswitch,Dual,1,1590.8,Older,1
5,bed.png,ACTION,sleep,114,switch,Dual,1,1593.3,Older,1
5,chair.png,ACTION,sit,9,switch,Dual,1,1605.1,Older,1
5,axe.png,ACTION,chop,128,nonswitch,Dual,2,1619.3,Older,0
5,axe.png,ACTION,chop,123,switch,Dual,2,1638.3,Older,0
5,dart.png,ACTION,throw,63,nonswitch,Dual,1,1644.5,Older,1
5,needle.png,ACTION,sew,34,switch,Dual,1,1666.3,Older,1
5,shovel.png,ACTION,dig,96,switch,Dual,1,1668.2,Older,1
5,axe.png,ACTION,chop,31,switch,Dual,2,1683.6,Older,0
5,kettle.png,ACTION,boil,81,X,Dual,7,1701.4,Older,1
5,keyboard.png,ACTION,type,2,nonswitch,Dual,1,1749.1,Older,1
5,pen.png,ACTION,write,86,switch,Dual,1,1863,Older,1
5,pen.png,ACTION,write,27,switch,Dual,1,1866.6,Older,1
5,pen.png,ACTION,write,18,nonswitch,Dual,1,1872,Older,1
5,keyboard.png,ACTION,type,27,SingleNaming,SingleA,1,1941.5,Older,1
5,pool.png,ACTION,swim,98,nonswitch,Dual,1,1984,Older,1
5,scissors.png,ACTION,cut,131,nonswitch,Dual,1,1999.3,Older,1
5,ladder.png,ACTION,climb,102,switch,Dual,1,2138.2,Older,1
5,dart.png,ACTION,throw,158,switch,Dual,1,2263.7,Older,1
5,bed.png,OBJECT,bed,32,SingleNaming,SingleB,1,717.5,Older,1
5,chair.png,OBJECT,chair,37,SingleNaming,SingleB,1,723.3,Older,1
5,pen.png,OBJECT,pen,38,SingleNaming,SingleB,1,740.5,Older,1
5,keyboard.png,OBJECT,keyboard,28,SingleNaming,SingleB,2,768.5,Older,0
5,scissors.png,OBJECT,scissors,24,SingleNaming,SingleB,1,770.5,Older,1
5,shovel.png,OBJECT,shovel,29,SingleNaming,SingleB,2,782.3,Older,0
5,ladder.png,OBJECT,ladder,30,SingleNaming,SingleB,1,807,Older,1
5,ladder.png,OBJECT,ladder,19,SingleNaming,SingleA,1,819.5,Older,1
5,scissors.png,OBJECT,scissors,18,SingleNaming,SingleA,1,826.8,Older,1
5,pool.png,OBJECT,pool,35,SingleNaming,SingleB,1,834.5,Older,1
5,dart.png,OBJECT,dart,40,SingleNaming,SingleB,1,836.2,Older,1
5,car.png,OBJECT,car,22,SingleNaming,SingleB,1,842,Older,1
5,axe.png,OBJECT,axe,25,SingleNaming,SingleB,1,845.5,Older,1
5,bell.png,OBJECT,bell,17,SingleNaming,SingleA,1,858.1,Older,1
5,razor.png,OBJECT,razor,34,SingleNaming,SingleB,1,868.8,Older,1
5,razor.png,OBJECT,razor,16,SingleNaming,SingleA,1,877.8,Older,1
5,kettle.png,OBJECT,kettle,31,SingleNaming,SingleB,1,877.8,Older,1
5,bell.png,OBJECT,bell,36,SingleNaming,SingleB,1,894.1,Older,1
5,bed.png,OBJECT,bed,7,SingleNaming,SingleA,1,906.6,Older,1
5,pen.png,OBJECT,pen,125,nonswitch,Dual,1,912.7,Older,1
5,bell.png,OBJECT,bell,94,switch,Dual,3,923.5,Older,0
5,chair.png,OBJECT,chair,8,SingleNaming,SingleA,1,927.4,Older,1
5,glass.png,OBJECT,glass,14,SingleNaming,SingleA,1,929.2,Older,1
5,pipe.png,OBJECT,pipe,15,SingleNaming,SingleA,1,954.4,Older,1
5,car.png,OBJECT,car,84,nonswitch,Dual,1,972.6,Older,1
5,dart.png,OBJECT,dart,88,switch,Dual,1,981.8,Older,1
5,pen.png,OBJECT,pen,6,SingleNaming,SingleA,1,1008.3,Older,1
5,football.png,OBJECT,ball,33,SingleNaming,SingleB,1,1008.7,Older,1
5,glass.png,OBJECT,glass,117,nonswitch,Dual,1,1025.5,Older,1
5,pipe.png,OBJECT,pipe,21,SingleNaming,SingleB,1,1029.5,Older,1
5,book.png,OBJECT,book,35,switch,Dual,1,1031.7,Older,1
5,keyboard.png,OBJECT,keyboard,73,nonswitch,Dual,2,1035.3,Older,0
5,kettle.png,OBJECT,kettle,13,SingleNaming,SingleA,1,1035.8,Older,1
5,axe.png,OBJECT,axe,101,nonswitch,Dual,1,1040,Older,1
5,shovel.png,OBJECT,shovel,12,SingleNaming,SingleA,2,1048.3,Older,0
5,needle.png,OBJECT,needle,27,SingleNaming,SingleB,1,1054.5,Older,1
5,book.png,OBJECT,book,30,nonswitch,Dual,1,1057.5,Older,1
5,car.png,OBJECT,car,42,nonswitch,Dual,7,1065,Older,1
5,chair.png,OBJECT,chair,85,nonswitch,Dual,1,1068.8,Older,1
5,book.png,OBJECT,book,5,SingleNaming,SingleA,1,1070.2,Older,1
5,book.png,OBJECT,book,39,SingleNaming,SingleB,1,1073.3,Older,1
5,needle.png,OBJECT,needle,9,SingleNaming,SingleA,1,1082,Older,1
5,car.png,OBJECT,car,10,SingleNaming,SingleA,1,1098.2,Older,1
5,keyboard.png,OBJECT,keyboard,153,nonswitch,Dual,2,1102.4,Older,0
5,plane.png,OBJECT,plane,26,SingleNaming,SingleB,1,1116.9,Older,1
5,dart.png,OBJECT,dart,1,SingleNaming,SingleA,1,1119,Older,1
5,glass.png,OBJECT,glass,23,SingleNaming,SingleB,1,1121.3,Older,1
5,shovel.png,OBJECT,shovel,4,nonswitch,Dual,2,1122.1,Older,0
5,needle.png,OBJECT,needle,133,nonswitch,Dual,1,1131.5,Older,1
5,bed.png,OBJECT,bed,110,nonswitch,Dual,1,1159.2,Older,1
5,chair.png,OBJECT,chair,25,nonswitch,Dual,1,1161,Older,1
5,axe.png,OBJECT,axe,11,SingleNaming,SingleA,1,1173.1,Older,1
5,axe.png,OBJECT,axe,26,nonswitch,Dual,1,1181.4,Older,1
5,pool.png,OBJECT,pool,36,nonswitch,Dual,1,1191.6,Older,1
5,razor.png,OBJECT,razor,70,nonswitch,Dual,1,1196.8,Older,1
5,car.png,OBJECT,car,103,switch,Dual,1,1202.2,Older,1
5,book.png,OBJECT,book,150,nonswitch,Dual,1,1208.1,Older,1
5,needle.png,OBJECT,needle,20,nonswitch,Dual,1,1216.1,Older,1
5,razor.png,OBJECT,razor,99,switch,Dual,1,1227.2,Older,1
5,scissors.png,OBJECT,scissors,126,nonswitch,Dual,1,1238.1,Older,1
5,bed.png,OBJECT,bed,54,nonswitch,Dual,1,1243.8,Older,1
5,bed.png,OBJECT,bed,139,switch,Dual,1,1264.5,Older,1
5,ladder.png,OBJECT,ladder,60,nonswitch,Dual,1,1268.8,Older,1
5,scissors.png,OBJECT,scissors,129,switch,Dual,1,1273.7,Older,1
5,pool.png,OBJECT,pool,4,SingleNaming,SingleA,1,1292.1,Older,1
5,keyboard.png,OBJECT,keyboard,23,switch,Dual,2,1293.8,Older,0
5,pool.png,OBJECT,pool,140,nonswitch,Dual,1,1313.2,Older,1
5,pipe.png,OBJECT,pipe,24,nonswitch,Dual,1,1318.7,Older,1
5,axe.png,OBJECT,axe,52,switch,Dual,1,1325.8,Older,1
5,football.png,OBJECT,ball,106,nonswitch,Dual,1,1327,Older,1
5,pool.png,OBJECT,pool,49,switch,Dual,1,1345.7,Older,1
5,glass.png,OBJECT,glass,21,nonswitch,Dual,1,1352.8,Older,1
5,kettle.png,OBJECT,kettle,160,switch,Dual,1,1357.1,Older,1
5,dart.png,OBJECT,dart,77,nonswitch,Dual,1,1374.1,Older,1
5,plane.png,OBJECT,plane,104,nonswitch,Dual,1,1376.1,Older,1
5,needle.png,OBJECT,needle,113,switch,Dual,1,1376.9,Older,1
5,kettle.png,OBJECT,kettle,45,nonswitch,Dual,1,1377,Older,1
5,glass.png,OBJECT,glass,152,switch,Dual,1,1379.3,Older,1
5,bed.png,OBJECT,bed,72,switch,Dual,1,1389.4,Older,1
5,bell.png,OBJECT,bell,116,nonswitch,Dual,1,1393.6,Older,1
5,pool.png,OBJECT,pool,149,switch,Dual,1,1394.4,Older,1
5,football.png,OBJECT,ball,14,switch,Dual,3,1417.4,Older,0
5,glass.png,OBJECT,glass,41,X,Dual,3,1443,Older,0
5,razor.png,OBJECT,razor,157,nonswitch,Dual,1,1455.1,Older,1
5,kettle.png,OBJECT,kettle,105,nonswitch,Dual,1,1462.2,Older,1
5,kettle.png,OBJECT,kettle,76,switch,Dual,1,1463.3,Older,1
5,pen.png,OBJECT,pen,91,switch,Dual,1,1472.3,Older,1
5,chair.png,OBJECT,chair,124,switch,Dual,1,1486.2,Older,1
5,ladder.png,OBJECT,ladder,115,switch,Dual,1,1510.1,Older,1
5,ladder.png,OBJECT,ladder,29,switch,Dual,1,1518.4,Older,1
5,pen.png,OBJECT,pen,33,switch,Dual,1,1524.1,Older,1
5,book.png,OBJECT,book,132,switch,Dual,1,1535.3,Older,1
5,football.png,OBJECT,ball,2,SingleNaming,SingleA,1,1556.5,Older,1
5,plane.png,OBJECT,plane,53,nonswitch,Dual,1,1569.9,Older,1
5,plane.png,OBJECT,plane,20,SingleNaming,SingleA,1,1570.1,Older,1
5,keyboard.png,OBJECT,keyboard,3,SingleNaming,SingleA,2,1599.3,Older,0
5,scissors.png,OBJECT,scissors,37,nonswitch,Dual,1,1629.8,Older,1
5,pipe.png,OBJECT,pipe,137,switch,Dual,1,1643.2,Older,1
5,chair.png,OBJECT,chair,19,switch,Dual,1,1672.8,Older,1
5,shovel.png,OBJECT,shovel,109,switch,Dual,2,1675.8,Older,0
5,plane.png,OBJECT,plane,156,switch,Dual,1,1676,Older,1
5,pen.png,OBJECT,pen,46,nonswitch,Dual,1,1686.5,Older,1
5,axe.png,OBJECT,axe,145,switch,Dual,1,1708.2,Older,1
5,scissors.png,OBJECT,scissors,65,switch,Dual,1,1751,Older,1
5,pipe.png,OBJECT,pipe,11,switch,Dual,1,1756.8,Older,1
5,pipe.png,OBJECT,pipe,95,nonswitch,Dual,7,1757.9,Older,1
5,dart.png,OBJECT,dart,122,nonswitch,Dual,1,1767.4,Older,1
5,dart.png,OBJECT,dart,69,switch,Dual,1,1769.4,Older,1
5,shovel.png,OBJECT,shovel,134,nonswitch,Dual,2,1779.9,Older,0
5,plane.png,OBJECT,plane,44,switch,Dual,1,1806.1,Older,1
5,bell.png,OBJECT,bell,59,switch,Dual,1,1814.1,Older,1
5,shovel.png,OBJECT,shovel,80,switch,Dual,2,1820.8,Older,0
5,football.png,OBJECT,ball,121,X,Dual,7,1822.1,Older,1
5,football.png,OBJECT,ball,5,nonswitch,Dual,1,1831.5,Older,1
5,car.png,OBJECT,car,3,switch,Dual,1,1839.5,Older,1
5,ladder.png,OBJECT,ladder,100,nonswitch,Dual,1,1840.4,Older,1
5,keyboard.png,OBJECT,keyboard,83,switch,Dual,2,1904.7,Older,0
5,bell.png,OBJECT,bell,15,nonswitch,Dual,7,2033,Older,1
5,razor.png,OBJECT,razor,57,switch,Dual,1,2056.8,Older,1
5,needle.png,OBJECT,needle,8,switch,Dual,1,2103.7,Older,1
6,book.png,ACTION,read,37,SingleNaming,SingleA,1,796.5,Older,1
6,book.png,ACTION,read,127,switch,Dual,1,871.7,Older,1
6,bell.png,ACTION,ring,24,SingleNaming,SingleA,1,885.6,Older,1
6,pen.png,ACTION,write,29,SingleNaming,SingleA,1,902.7,Older,1
6,book.png,ACTION,read,17,SingleNaming,SingleB,1,903,Older,1
6,razor.png,ACTION,shave,39,SingleNaming,SingleA,1,907.1,Older,1
6,scissors.png,ACTION,cut,30,SingleNaming,SingleA,1,914,Older,1
6,shovel.png,ACTION,dig,20,SingleNaming,SingleB,1,916.4,Older,1
6,kettle.png,ACTION,boil,25,SingleNaming,SingleA,1,920.1,Older,1
6,ladder.png,ACTION,climb,26,SingleNaming,SingleA,1,933.4,Older,1
6,glass.png,ACTION,drink,34,SingleNaming,SingleA,1,933.8,Older,1
6,book.png,ACTION,read,87,nonswitch,Dual,1,935.6,Older,1
6,chair.png,ACTION,sit,23,SingleNaming,SingleA,1,943.7,Older,1
6,shovel.png,ACTION,dig,40,SingleNaming,SingleA,1,952.3,Older,1
6,bell.png,ACTION,ring,19,SingleNaming,SingleB,1,954.1,Older,1
6,pipe.png,ACTION,smoke,28,SingleNaming,SingleA,1,978.5,Older,1
6,car.png,ACTION,drive,32,SingleNaming,SingleA,1,997.2,Older,1
6,bed.png,ACTION,sleep,38,SingleNaming,SingleA,1,1011.3,Older,1
6,football.png,ACTION,kick,35,SingleNaming,SingleA,1,1012.8,Older,1
6,book.png,ACTION,read,47,switch,Dual,1,1063.1,Older,1
6,razor.png,ACTION,shave,67,nonswitch,Dual,1,1073.6,Older,1
6,glass.png,ACTION,drink,14,SingleNaming,SingleB,1,1076.2,Older,1
6,plane.png,ACTION,fly,33,SingleNaming,SingleA,1,1086.1,Older,1
6,needle.png,ACTION,sew,16,SingleNaming,SingleB,1,1094.6,Older,1
6,ladder.png,ACTION,climb,15,SingleNaming,SingleB,1,1095.4,Older,1
6,bed.png,ACTION,sleep,18,SingleNaming,SingleB,1,1098.1,Older,1
6,razor.png,ACTION,shave,136,nonswitch,Dual,1,1108.5,Older,1
6,glass.png,ACTION,drink,120,nonswitch,Dual,3,1124.3,Older,0
6,car.png,ACTION,drive,75,nonswitch,Dual,1,1124.9,Older,1
6,needle.png,ACTION,sew,21,SingleNaming,SingleA,1,1125.1,Older,1
6,football.png,ACTION,kick,151,switch,Dual,1,1131.7,Older,1
6,car.png,ACTION,drive,12,SingleNaming,SingleB,1,1139.9,Older,1
6,shovel.png,ACTION,dig,118,switch,Dual,1,1144.9,Older,1
6,axe.png,ACTION,chop,22,SingleNaming,SingleA,1,1177.4,Older,1
6,dart.png,ACTION,throw,36,SingleNaming,SingleA,1,1195.3,Older,1
6,chair.png,ACTION,sit,3,SingleNaming,SingleB,1,1198.9,Older,1
6,shovel.png,ACTION,dig,96,switch,Dual,1,1200.1,Older,1
6,razor.png,ACTION,shave,111,switch,Dual,1,1249.6,Older,1
6,scissors.png,ACTION,cut,131,nonswitch,Dual,1,1262.2,Older,1
6,scissors.png,ACTION,cut,6,switch,Dual,1,1265.7,Older,1
6,bed.png,ACTION,sleep,82,nonswitch,Dual,1,1317.8,Older,1
6,car.png,ACTION,drive,90,nonswitch,Dual,1,1344.1,Older,1
6,ladder.png,ACTION,climb,102,switch,Dual,1,1344.9,Older,1
6,football.png,ACTION,kick,8,SingleNaming,SingleB,1,1346.4,Older,1
6,scissors.png,ACTION,cut,93,nonswitch,Dual,1,1351.3,Older,1
6,plane.png,ACTION,fly,13,SingleNaming,SingleB,1,1355.8,Older,1
6,pen.png,ACTION,write,86,switch,Dual,1,1358.2,Older,1
6,car.png,ACTION,drive,107,switch,Dual,1,1379.7,Older,1
6,pool.png,ACTION,swim,138,switch,Dual,1,1380.8,Older,1
6,chair.png,ACTION,sit,144,nonswitch,Dual,1,1389.6,Older,1
6,pen.png,ACTION,write,9,SingleNaming,SingleB,1,1394,Older,1
6,scissors.png,ACTION,cut,10,SingleNaming,SingleB,1,1395.5,Older,1
6,axe.png,ACTION,chop,31,switch,Dual,3,1416.1,Older,0
6,football.png,ACTION,kick,148,nonswitch,Dual,1,1436.6,Older,1
6,keyboard.png,ACTION,type,112,nonswitch,Dual,1,1437.1,Older,1
6,pipe.png,ACTION,smoke,1,SingleNaming,SingleB,1,1440.5,Older,1
6,pipe.png,ACTION,smoke,66,switch,Dual,1,1474.6,Older,1
6,shovel.png,ACTION,dig,71,switch,Dual,1,1476.9,Older,1
6,keyboard.png,ACTION,type,97,nonswitch,Dual,1,1484.8,Older,1
6,pool.png,ACTION,swim,31,SingleNaming,SingleA,1,1486.9,Older,1
6,pool.png,ACTION,swim,11,SingleNaming,SingleB,1,1487.7,Older,1
6,bell.png,ACTION,ring,64,nonswitch,Dual,1,1487.7,Older,1
6,dart.png,ACTION,throw,63,nonswitch,Dual,1,1494.1,Older,1
6,glass.png,ACTION,drink,135,switch,Dual,1,1523.1,Older,1
6,pool.png,ACTION,swim,43,switch,Dual,1,1532.5,Older,1
6,ladder.png,ACTION,climb,79,nonswitch,Dual,1,1533.4,Older,1
6,pool.png,ACTION,swim,98,nonswitch,Dual,1,1540.7,Older,1
6,ladder.png,ACTION,climb,142,nonswitch,Dual,1,1565,Older,1
6,dart.png,ACTION,throw,119,nonswitch,Dual,1,1582.6,Older,1
6,football.png,ACTION,kick,55,switch,Dual,1,1617,Older,1
6,book.png,ACTION,read,28,nonswitch,Dual,1,1625,Older,1
6,pen.png,ACTION,write,27,switch,Dual,1,1626.4,Older,1
6,kettle.png,ACTION,boil,155,nonswitch,Dual,1,1629.9,Older,1
6,chair.png,ACTION,sit,9,switch,Dual,3,1644.4,Older,0
6,bed.png,ACTION,sleep,114,switch,Dual,1,1646.9,Older,1
6,keyboard.png,ACTION,type,108,nonswitch,Dual,1,1665.4,Older,1
6,chair.png,ACTION,sit,32,nonswitch,Dual,7,1670.7,Older,1
6,scissors.png,ACTION,cut,154,switch,Dual,1,1674.8,Older,1
6,keyboard.png,ACTION,type,2,nonswitch,Dual,2,1681.3,Older,0
6,axe.png,ACTION,chop,128,nonswitch,Dual,1,1685.9,Older,1
6,needle.png,ACTION,sew,74,switch,Dual,1,1691.8,Older,1
6,bell.png,ACTION,ring,22,switch,Dual,1,1705.1,Older,1
6,needle.png,ACTION,sew,40,nonswitch,Dual,1,1721.2,Older,1
6,plane.png,ACTION,fly,58,switch,Dual,1,1724.2,Older,1
6,kettle.png,ACTION,boil,62,nonswitch,Dual,1,1725.8,Older,1
6,razor.png,ACTION,shave,50,switch,Dual,1,1739.7,Older,1
6,needle.png,ACTION,sew,34,switch,Dual,1,1757.9,Older,1
6,chair.png,ACTION,sit,92,switch,Dual,1,1761.9,Older,1
6,dart.png,ACTION,throw,4,SingleNaming,SingleB,1,1764.3,Older,1
6,pool.png,ACTION,swim,39,nonswitch,Dual,1,1783.6,Older,1
6,pen.png,ACTION,write,18,nonswitch,Dual,1,1784.1,Older,1
6,dart.png,ACTION,throw,38,switch,Dual,1,1787.5,Older,1
6,car.png,ACTION,drive,61,switch,Dual,1,1795,Older,1
6,pipe.png,ACTION,smoke,17,nonswitch,Dual,1,1858.3,Older,1
6,plane.png,ACTION,fly,147,nonswitch,Dual,1,1925.7,Older,1
6,needle.png,ACTION,sew,141,switch,Dual,1,1931.3,Older,1
6,shovel.png,ACTION,dig,51,nonswitch,Dual,1,1932.2,Older,1
6,bed.png,ACTION,sleep,13,nonswitch,Dual,1,1951.4,Older,1
6,plane.png,ACTION,fly,130,switch,Dual,7,2023.6,Older,1
6,pipe.png,ACTION,smoke,89,switch,Dual,1,2072.4,Older,1
6,pipe.png,ACTION,smoke,159,nonswitch,Dual,1,2106.3,Older,1
6,bed.png,ACTION,sleep,78,switch,Dual,1,2124.1,Older,1
6,kettle.png,ACTION,boil,81,X,Dual,7,2129.1,Older,1
6,football.png,ACTION,kick,48,nonswitch,Dual,1,2144.9,Older,1
6,keyboard.png,ACTION,type,27,SingleNaming,SingleA,1,2165.4,Older,1
6,glass.png,ACTION,drink,16,switch,Dual,1,2209.7,Older,1
6,kettle.png,ACTION,boil,5,SingleNaming,SingleB,1,2243.5,Older,1
6,bell.png,ACTION,ring,146,switch,Dual,1,2264.8,Older,1
6,pen.png,ACTION,write,143,nonswitch,Dual,1,2280.3,Older,1
6,bell.png,ACTION,ring,68,nonswitch,Dual,1,2284.1,Older,1
6,razor.png,ACTION,shave,6,SingleNaming,SingleB,1,2359.5,Older,1
6,ladder.png,ACTION,climb,12,switch,Dual,1,2391.1,Older,1
6,glass.png,ACTION,drink,10,nonswitch,Dual,7,2406.4,Older,1
6,keyboard.png,ACTION,type,7,SingleNaming,SingleB,1,2604.4,Older,1
6,plane.png,ACTION,fly,7,nonswitch,Dual,1,2705.9,Older,1
6,axe.png,ACTION,chop,123,switch,Dual,1,2728.6,Older,1
6,dart.png,ACTION,throw,158,switch,Dual,1,2782.2,Older,1
6,axe.png,ACTION,chop,56,nonswitch,Dual,1,2841.2,Older,1
6,kettle.png,ACTION,boil,1,X,Dual,7,2926.9,Older,1
6,axe.png,ACTION,chop,2,SingleNaming,SingleB,1,3090.8,Older,1
6,shovel.png,OBJECT,shovel,12,SingleNaming,SingleA,1,780.7,Older,1
6,car.png,OBJECT,car,10,SingleNaming,SingleA,1,789.9,Older,1
6,car.png,OBJECT,car,22,SingleNaming,SingleB,1,789.9,Older,1
6,book.png,OBJECT,book,5,SingleNaming,SingleA,1,797.7,Older,1
6,chair.png,OBJECT,chair,8,SingleNaming,SingleA,1,809.8,Older,1
6,bed.png,OBJECT,bed,7,SingleNaming,SingleA,1,838.2,Older,1
6,pen.png,OBJECT,pen,38,SingleNaming,SingleB,1,854.2,Older,1
6,kettle.png,OBJECT,kettle,31,SingleNaming,SingleB,1,869.6,Older,1
6,ladder.png,OBJECT,ladder,19,SingleNaming,SingleA,1,877.1,Older,1
6,pool.png,OBJECT,pool,35,SingleNaming,SingleB,1,877.2,Older,1
6,football.png,OBJECT,ball,33,SingleNaming,SingleB,1,879,Older,1
6,needle.png,OBJECT,needle,9,SingleNaming,SingleA,1,888.1,Older,1
6,bell.png,OBJECT,bell,17,SingleNaming,SingleA,1,890,Older,1
6,glass.png,OBJECT,glass,152,switch,Dual,3,901.1,Older,0
6,axe.png,OBJECT,axe,11,SingleNaming,SingleA,1,905.5,Older,1
6,glass.png,OBJECT,glass,14,SingleNaming,SingleA,1,915.9,Older,1
6,chair.png,OBJECT,chair,37,SingleNaming,SingleB,1,916,Older,1
6,football.png,OBJECT,ball,2,SingleNaming,SingleA,1,916.1,Older,1
6,keyboard.png,OBJECT,keyboard,3,SingleNaming,SingleA,1,928.9,Older,1
6,dart.png,OBJECT,dart,1,SingleNaming,SingleA,1,935.3,Older,1
6,dart.png,OBJECT,dart,40,SingleNaming,SingleB,1,939.6,Older,1
6,scissors.png,OBJECT,scissors,18,SingleNaming,SingleA,1,943,Older,1
6,bell.png,OBJECT,bell,94,switch,Dual,3,946.1,Older,0
6,razor.png,OBJECT,razor,16,SingleNaming,SingleA,1,964,Older,1
6,keyboard.png,OBJECT,keyboard,28,SingleNaming,SingleB,1,964.3,Older,1
6,bed.png,OBJECT,bed,32,SingleNaming,SingleB,1,969.9,Older,1
6,pipe.png,OBJECT,pipe,15,SingleNaming,SingleA,1,1011.2,Older,1
6,axe.png,OBJECT,axe,25,SingleNaming,SingleB,1,1053.8,Older,1
6,needle.png,OBJECT,needle,113,switch,Dual,1,1054.3,Older,1
6,bell.png,OBJECT,bell,36,SingleNaming,SingleB,1,1059.8,Older,1
6,kettle.png,OBJECT,kettle,13,SingleNaming,SingleA,1,1065.7,Older,1
6,scissors.png,OBJECT,scissors,126,nonswitch,Dual,1,1068.5,Older,1
6,plane.png,OBJECT,plane,26,SingleNaming,SingleB,1,1086.1,Older,1
6,ladder.png,OBJECT,ladder,30,SingleNaming,SingleB,1,1103.2,Older,1
6,shovel.png,OBJECT,shovel,29,SingleNaming,SingleB,1,1104.1,Older,1
6,keyboard.png,OBJECT,keyboard,83,switch,Dual,1,1104.7,Older,1
6,pen.png,OBJECT,pen,6,SingleNaming,SingleA,1,1141.2,Older,1
6,pool.png,OBJECT,pool,4,SingleNaming,SingleA,1,1143.3,Older,1
6,car.png,OBJECT,car,3,switch,Dual,3,1154.2,Older,0
6,razor.png,OBJECT,razor,34,SingleNaming,SingleB,1,1160.9,Older,1
6,scissors.png,OBJECT,scissors,24,SingleNaming,SingleB,1,1169.7,Older,1
6,car.png,OBJECT,car,103,switch,Dual,1,1184.8,Older,1
6,needle.png,OBJECT,needle,27,SingleNaming,SingleB,1,1185.9,Older,1
6,pipe.png,OBJECT,pipe,21,SingleNaming,SingleB,1,1186,Older,1
6,pen.png,OBJECT,pen,46,nonswitch,Dual,1,1197.8,Older,1
6,dart.png,OBJECT,dart,122,nonswitch,Dual,1,1229,Older,1
6,pen.png,OBJECT,pen,125,nonswitch,Dual,1,1255.3,Older,1
6,glass.png,OBJECT,glass,23,SingleNaming,SingleB,1,1292.1,Older,1
6,bed.png,OBJECT,bed,139,switch,Dual,1,1443.9,Older,1
6,needle.png,OBJECT,needle,20,nonswitch,Dual,1,1445.7,Older,1
6,axe.png,OBJECT,axe,145,switch,Dual,1,1451.2,Older,1
6,kettle.png,OBJECT,kettle,105,nonswitch,Dual,1,1452,Older,1
6,scissors.png,OBJECT,scissors,65,switch,Dual,1,1461.5,Older,1
6,book.png,OBJECT,book,150,nonswitch,Dual,1,1462.5,Older,1
6,axe.png,OBJECT,axe,52,switch,Dual,1,1467.7,Older,1
6,axe.png,OBJECT,axe,101,nonswitch,Dual,1,1468.9,Older,1
6,pen.png,OBJECT,pen,33,switch,Dual,1,1483.5,Older,1
6,chair.png,OBJECT,chair,25,nonswitch,Dual,1,1487.5,Older,1
6,pool.png,OBJECT,pool,36,nonswitch,Dual,1,1489,Older,1
6,dart.png,OBJECT,dart,77,nonswitch,Dual,1,1497.1,Older,1
6,kettle.png,OBJECT,kettle,45,nonswitch,Dual,1,1523.5,Older,1
6,football.png,OBJECT,ball,5,nonswitch,Dual,1,1540.5,Older,1
6,shovel.png,OBJECT,shovel,109,switch,Dual,1,1541.9,Older,1
6,car.png,OBJECT,car,84,nonswitch,Dual,1,1569.5,Older,1
6,pen.png,OBJECT,pen,91,switch,Dual,1,1611,Older,1
6,plane.png,OBJECT,plane,44,switch,Dual,1,1615.4,Older,1
6,bed.png,OBJECT,bed,72,switch,Dual,1,1618.3,Older,1
6,chair.png,OBJECT,chair,85,nonswitch,Dual,1,1627.8,Older,1
6,ladder.png,OBJECT,ladder,100,nonswitch,Dual,1,1629.8,Older,1
6,pipe.png,OBJECT,pipe,11,switch,Dual,1,1631.1,Older,1
6,ladder.png,OBJECT,ladder,60,nonswitch,Dual,1,1632.5,Older,1
6,glass.png,OBJECT,glass,41,X,Dual,7,1674.6,Older,1
6,razor.png,OBJECT,razor,157,nonswitch,Dual,1,1689.9,Older,1
6,book.png,OBJECT,book,39,SingleNaming,SingleB,1,1704.1,Older,1
6,ladder.png,OBJECT,ladder,29,switch,Dual,2,1739.2,Older,0
6,kettle.png,OBJECT,kettle,160,switch,Dual,1,1740.3,Older,1
6,bell.png,OBJECT,bell,116,nonswitch,Dual,1,1745.1,Older,1
6,chair.png,OBJECT,chair,124,switch,Dual,1,1758.8,Older,1
6,football.png,OBJECT,ball,121,X,Dual,7,1763.5,Older,1
6,keyboard.png,OBJECT,keyboard,23,switch,Dual,1,1777,Older,1
6,keyboard.png,OBJECT,keyboard,153,nonswitch,Dual,7,1777.1,Older,1
6,plane.png,OBJECT,plane,104,nonswitch,Dual,1,1794.7,Older,1
6,plane.png,OBJECT,plane,156,switch,Dual,1,1795.7,Older,1
6,football.png,OBJECT,ball,106,nonswitch,Dual,1,1817.7,Older,1
6,glass.png,OBJECT,glass,117,nonswitch,Dual,1,1820.8,Older,1
6,bell.png,OBJECT,bell,59,switch,Dual,1,1842.5,Older,1
6,needle.png,OBJECT,needle,8,switch,Dual,1,1875.2,Older,1
6,book.png,OBJECT,book,30,nonswitch,Dual,1,1926.1,Older,1
6,shovel.png,OBJECT,shovel,134,nonswitch,Dual,1,1929.1,Older,1
6,chair.png,OBJECT,chair,19,switch,Dual,1,1947.7,Older,1
6,plane.png,OBJECT,plane,20,SingleNaming,SingleA,1,1980.9,Older,1
6,book.png,OBJECT,book,132,switch,Dual,1,1993.1,Older,1
6,car.png,OBJECT,car,42,nonswitch,Dual,1,2063.1,Older,1
6,dart.png,OBJECT,dart,69,switch,Dual,1,2063.5,Older,1
6,pool.png,OBJECT,pool,140,nonswitch,Dual,1,2092.9,Older,1
6,pipe.png,OBJECT,pipe,24,nonswitch,Dual,1,2135.6,Older,1
6,pipe.png,OBJECT,pipe,95,nonswitch,Dual,7,2196.3,Older,1
6,glass.png,OBJECT,glass,21,nonswitch,Dual,1,2200.4,Older,1
6,pipe.png,OBJECT,pipe,137,switch,Dual,1,2215,Older,1
6,dart.png,OBJECT,dart,88,switch,Dual,1,2219.1,Older,1
6,razor.png,OBJECT,razor,70,nonswitch,Dual,1,2224.6,Older,1
6,scissors.png,OBJECT,scissors,37,nonswitch,Dual,1,2239.8,Older,1
6,keyboard.png,OBJECT,keyboard,73,nonswitch,Dual,1,2243.2,Older,1
6,shovel.png,OBJECT,shovel,4,nonswitch,Dual,7,2244.8,Older,1
6,book.png,OBJECT,book,35,switch,Dual,1,2295.5,Older,1
6,shovel.png,OBJECT,shovel,80,switch,Dual,1,2308.9,Older,1
6,kettle.png,OBJECT,kettle,76,switch,Dual,1,2315.9,Older,1
6,bed.png,OBJECT,bed,54,nonswitch,Dual,1,2326.1,Older,1
6,bed.png,OBJECT,bed,110,nonswitch,Dual,1,2337.5,Older,1
6,scissors.png,OBJECT,scissors,129,switch,Dual,3,2390,Older,0
6,razor.png,OBJECT,razor,99,switch,Dual,1,2445.8,Older,1
6,bell.png,OBJECT,bell,15,nonswitch,Dual,1,2478.1,Older,1
6,pool.png,OBJECT,pool,49,switch,Dual,1,2483,Older,1
6,needle.png,OBJECT,needle,133,nonswitch,Dual,1,2526.8,Older,1
6,ladder.png,OBJECT,ladder,115,switch,Dual,1,2715.3,Older,1
6,axe.png,OBJECT,axe,26,nonswitch,Dual,1,2742.7,Older,1
6,razor.png,OBJECT,razor,57,switch,Dual,1,2831,Older,1
6,football.png,OBJECT,ball,14,switch,Dual,1,2990.3,Older,1
6,pool.png,OBJECT,pool,149,switch,Dual,1,3226.3,Older,1
6,plane.png,OBJECT,plane,53,nonswitch,Dual,1,3301.2,Older,1
7,chair.png,ACTION,sit,3,SingleNaming,SingleB,1,917.1,Older,1
7,kettle.png,ACTION,boil,5,SingleNaming,SingleB,1,1011.2,Older,1
7,pool.png,ACTION,swim,11,SingleNaming,SingleB,1,1024,Older,1
7,book.png,ACTION,read,17,SingleNaming,SingleB,1,1041.1,Older,1
7,plane.png,ACTION,fly,13,SingleNaming,SingleB,1,1044.2,Older,1
7,book.png,ACTION,read,87,nonswitch,Dual,1,1075.2,Older,1
7,glass.png,ACTION,drink,14,SingleNaming,SingleB,1,1079.5,Older,1
7,plane.png,ACTION,fly,147,nonswitch,Dual,1,1079.5,Older,1
7,chair.png,ACTION,sit,9,switch,Dual,7,1101.1,Older,1
7,car.png,ACTION,drive,90,nonswitch,Dual,1,1109.3,Older,1
7,pool.png,ACTION,swim,138,switch,Dual,1,1109.3,Older,1
7,pool.png,ACTION,swim,43,switch,Dual,1,1121,Older,1
7,football.png,ACTION,kick,48,nonswitch,Dual,1,1122.1,Older,1
7,bed.png,ACTION,sleep,38,SingleNaming,SingleA,1,1126.4,Older,1
7,pipe.png,ACTION,smoke,159,nonswitch,Dual,1,1126.4,Older,1
7,scissors.png,ACTION,cut,154,switch,Dual,1,1130.7,Older,1
7,pen.png,ACTION,write,9,SingleNaming,SingleB,1,1139.2,Older,1
7,pipe.png,ACTION,smoke,17,nonswitch,Dual,1,1139.2,Older,1
7,football.png,ACTION,kick,148,nonswitch,Dual,1,1142.5,Older,1
7,axe.png,ACTION,chop,22,SingleNaming,SingleA,1,1147.7,Older,1
7,book.png,ACTION,read,37,SingleNaming,SingleA,1,1150.3,Older,1
7,ladder.png,ACTION,climb,102,switch,Dual,1,1152,Older,1
7,keyboard.png,ACTION,type,108,nonswitch,Dual,1,1156.3,Older,1
7,book.png,ACTION,read,47,switch,Dual,1,1160.5,Older,1
7,razor.png,ACTION,shave,67,nonswitch,Dual,1,1160.5,Older,1
7,ladder.png,ACTION,climb,15,SingleNaming,SingleB,1,1173.3,Older,1
7,bed.png,ACTION,sleep,18,SingleNaming,SingleB,1,1173.3,Older,1
7,football.png,ACTION,kick,8,SingleNaming,SingleB,1,1176.4,Older,1
7,ladder.png,ACTION,climb,142,nonswitch,Dual,1,1177.6,Older,1
7,bed.png,ACTION,sleep,82,nonswitch,Dual,1,1181.9,Older,1
7,shovel.png,ACTION,dig,20,SingleNaming,SingleB,1,1186.1,Older,1
7,axe.png,ACTION,chop,2,SingleNaming,SingleB,1,1190.4,Older,1
7,car.png,ACTION,drive,32,SingleNaming,SingleA,1,1193.6,Older,1
7,pipe.png,ACTION,smoke,28,SingleNaming,SingleA,1,1195.3,Older,1
7,bell.png,ACTION,ring,22,switch,Dual,1,1201,Older,1
7,ladder.png,ACTION,climb,26,SingleNaming,SingleA,1,1203.2,Older,1
7,pen.png,ACTION,write,86,switch,Dual,1,1203.2,Older,1
7,keyboard.png,ACTION,type,112,nonswitch,Dual,1,1207.5,Older,1
7,pool.png,ACTION,swim,31,SingleNaming,SingleA,1,1208,Older,1
7,car.png,ACTION,drive,75,nonswitch,Dual,1,1211.7,Older,1
7,scissors.png,ACTION,cut,10,SingleNaming,SingleB,1,1216,Older,1
7,ladder.png,ACTION,climb,12,switch,Dual,1,1216,Older,1
7,bed.png,ACTION,sleep,13,nonswitch,Dual,1,1216,Older,1
7,bell.png,ACTION,ring,19,SingleNaming,SingleB,1,1216,Older,1
7,scissors.png,ACTION,cut,30,SingleNaming,SingleA,1,1220.3,Older,1
7,dart.png,ACTION,throw,36,SingleNaming,SingleA,1,1222.2,Older,1
7,shovel.png,ACTION,dig,118,switch,Dual,1,1223,Older,1
7,book.png,ACTION,read,123,switch,Dual,1,1224.5,Older,1
7,chair.png,ACTION,sit,144,nonswitch,Dual,1,1224.5,Older,1
7,kettle.png,ACTION,boil,25,SingleNaming,SingleA,1,1228.8,Older,1
7,glass.png,ACTION,drink,16,switch,Dual,1,1232,Older,1
7,pen.png,ACTION,write,18,nonswitch,Dual,1,1237.3,Older,1
7,chair.png,ACTION,sit,32,nonswitch,Dual,1,1246.9,Older,1
7,needle.png,ACTION,sew,40,nonswitch,Dual,1,1254.4,Older,1
7,pool.png,ACTION,swim,98,nonswitch,Dual,1,1258.7,Older,1
7,pen.png,ACTION,write,29,SingleNaming,SingleA,1,1259.6,Older,1
7,axe.png,ACTION,chop,31,switch,Dual,1,1261.6,Older,1
7,scissors.png,ACTION,cut,131,nonswitch,Dual,1,1267.2,Older,1
7,car.png,ACTION,drive,12,SingleNaming,SingleB,1,1271.5,Older,1
7,bell.png,ACTION,ring,24,SingleNaming,SingleA,1,1280,Older,1
7,glass.png,ACTION,drink,120,nonswitch,Dual,1,1288.5,Older,1
7,pipe.png,ACTION,smoke,1,SingleNaming,SingleB,1,1292.8,Older,1
7,football.png,ACTION,kick,151,switch,Dual,1,1297.1,Older,1
7,kettle.png,ACTION,boil,155,nonswitch,Dual,1,1297.1,Older,1
7,pipe.png,ACTION,smoke,89,switch,Dual,1,1300.6,Older,1
7,chair.png,ACTION,sit,92,switch,Dual,1,1301.3,Older,1
7,pool.png,ACTION,swim,39,nonswitch,Dual,1,1318.4,Older,1
7,axe.png,ACTION,chop,56,nonswitch,Dual,1,1322.7,Older,1
7,plane.png,ACTION,fly,7,nonswitch,Dual,1,1326.8,Older,1
7,football.png,ACTION,kick,55,switch,Dual,1,1326.9,Older,1
7,ladder.png,ACTION,climb,79,nonswitch,Dual,1,1331.2,Older,1
7,bell.png,ACTION,ring,64,nonswitch,Dual,1,1346,Older,1
7,needle.png,ACTION,sew,21,SingleNaming,SingleA,1,1348.3,Older,1
7,keyboard.png,ACTION,type,27,SingleNaming,SingleA,1,1359.1,Older,1
7,needle.png,ACTION,sew,16,SingleNaming,SingleB,1,1373.9,Older,1
7,pen.png,ACTION,write,27,switch,Dual,3,1373.9,Older,0
7,plane.png,ACTION,fly,130,switch,Dual,1,1386.7,Older,1
7,shovel.png,ACTION,dig,40,SingleNaming,SingleA,1,1390.9,Older,1
7,pen.png,ACTION,write,143,nonswitch,Dual,1,1403.7,Older,1
7,glass.png,ACTION,drink,34,SingleNaming,SingleA,1,1410.3,Older,1
7,razor.png,ACTION,shave,6,SingleNaming,SingleB,1,1412.4,Older,1
7,axe.png,ACTION,chop,127,switch,Dual,1,1417,Older,1
7,bell.png,ACTION,ring,68,nonswitch,Dual,1,1429.3,Older,1
7,football.png,ACTION,kick,35,SingleNaming,SingleA,1,1448.6,Older,1
7,chair.png,ACTION,sit,23,SingleNaming,SingleA,1,1449.6,Older,1
7,plane.png,ACTION,fly,33,SingleNaming,SingleA,1,1455.4,Older,1
7,dart.png,ACTION,throw,63,nonswitch,Dual,1,1465.4,Older,1
7,scissors.png,ACTION,cut,6,switch,Dual,1,1467.7,Older,1
7,pipe.png,ACTION,smoke,66,switch,Dual,1,1493.3,Older,1
7,dart.png,ACTION,throw,4,SingleNaming,SingleB,1,1497.6,Older,1
7,razor.png,ACTION,shave,111,switch,Dual,1,1510.4,Older,1
7,bell.png,ACTION,ring,146,switch,Dual,1,1510.4,Older,1
7,car.png,ACTION,drive,107,switch,Dual,1,1523.2,Older,1
7,keyboard.png,ACTION,type,2,nonswitch,Dual,1,1541.5,Older,1
7,kettle.png,ACTION,boil,62,nonswitch,Dual,1,1565.9,Older,1
7,razor.png,ACTION,shave,136,nonswitch,Dual,1,1610.1,Older,1
7,needle.png,ACTION,sew,34,switch,Dual,1,1614.1,Older,1
7,bed.png,ACTION,sleep,114,switch,Dual,1,1625.1,Older,1
7,dart.png,ACTION,throw,158,switch,Dual,1,1625.6,Older,1
7,shovel.png,ACTION,shovel,96,switch,Dual,2,1637.7,Older,0
7,razor.png,ACTION,shave,50,switch,Dual,1,1642.7,Older,1
7,kettle.png,ACTION,boil,81,X,Dual,7,1644.5,Older,1
7,car.png,ACTION,drive,61,switch,Dual,1,1669.1,Older,1
7,needle.png,ACTION,sew,141,switch,Dual,1,1689.6,Older,1
7,glass.png,ACTION,drink,10,nonswitch,Dual,1,1693.9,Older,1
7,glass.png,ACTION,drink,135,switch,Dual,1,1706.7,Older,1
7,needle.png,ACTION,sew,74,switch,Dual,1,1710.9,Older,1
7,bed.png,ACTION,sleep,78,switch,Dual,1,1732.3,Older,1
7,keyboard.png,ACTION,type,7,SingleNaming,SingleB,1,1743.8,Older,1
7,keyboard.png,ACTION,type,97,nonswitch,Dual,1,1779.2,Older,1
7,dart.png,ACTION,throw,38,switch,Dual,1,1860.3,Older,1
7,dart.png,ACTION,throw,119,nonswitch,Dual,1,1873.1,Older,1
7,scissors.png,ACTION,cut,93,nonswitch,Dual,1,1885.9,Older,1
7,plane.png,ACTION,fly,58,switch,Dual,1,1950.6,Older,1
7,axe.png,ACTION,chop,128,nonswitch,Dual,1,2222.9,Older,1
7,kettle.png,ACTION,boil,1,X,Dual,7,2224.3,Older,1
7,razor.png,ACTION,shave,39,SingleNaming,SingleA,1,2522,Older,1
7,shovel.png,ACTION,dig,71,switch,Dual,3,2756.3,Older,0
7,shovel.png,ACTION,dig,51,nonswitch,Dual,1,2786.1,Older,1
7,book.png,ACTION,read,28,nonswitch,Dual,7,2922.7,Older,1
7,book.png,OBJECT,book,39,SingleNaming,SingleB,1,1006.9,Older,1
7,pen.png,OBJECT,pen,38,SingleNaming,SingleB,1,1028.3,Older,1
7,car.png,OBJECT,car,22,SingleNaming,SingleB,1,1032.5,Older,1
7,bed.png,OBJECT,bed,32,SingleNaming,SingleB,1,1045.3,Older,1
7,scissors.png,OBJECT,scissors,24,SingleNaming,SingleB,1,1049.6,Older,1
7,chair.png,OBJECT,chair,8,SingleNaming,SingleA,1,1062.4,Older,1
7,ladder.png,OBJECT,ladder,19,SingleNaming,SingleA,1,1062.4,Older,1
7,glass.png,OBJECT,glass,23,SingleNaming,SingleB,1,1096.5,Older,1
7,dart.png,OBJECT,dart,122,nonswitch,Dual,1,1122.1,Older,1
7,needle.png,OBJECT,needle,27,SingleNaming,SingleB,1,1126.4,Older,1
7,ladder.png,OBJECT,ladder,30,SingleNaming,SingleB,1,1137.5,Older,1
7,football.png,OBJECT,ball,106,nonswitch,Dual,1,1153.4,Older,1
7,plane.png,OBJECT,plane,26,SingleNaming,SingleB,1,1160.5,Older,1
7,needle.png,OBJECT,needle,8,switch,Dual,3,1165.3,Older,0
7,chair.png,OBJECT,chair,37,SingleNaming,SingleB,1,1176.3,Older,1
7,pipe.png,OBJECT,pipe,15,SingleNaming,SingleA,1,1177.6,Older,1
7,axe.png,OBJECT,axe,25,SingleNaming,SingleB,1,1181.9,Older,1
7,keyboard.png,OBJECT,keyboard,83,switch,Dual,1,1181.9,Older,1
7,ladder.png,OBJECT,ladder,115,switch,Dual,1,1194.7,Older,1
7,pen.png,OBJECT,pen,46,nonswitch,Dual,1,1199.5,Older,1
7,football.png,OBJECT,ball,14,switch,Dual,1,1201.7,Older,1
7,pool.png,OBJECT,pool,35,SingleNaming,SingleB,1,1216,Older,1
7,pen.png,OBJECT,pen,125,nonswitch,Dual,1,1220.3,Older,1
7,pool.png,OBJECT,pool,49,switch,Dual,1,1221.9,Older,1
7,car.png,OBJECT,car,84,nonswitch,Dual,1,1224.5,Older,1
7,pipe.png,OBJECT,pipe,21,SingleNaming,SingleB,1,1245.9,Older,1
7,glass.png,OBJECT,glass,14,SingleNaming,SingleA,1,1250.1,Older,1
7,glass.png,OBJECT,glass,152,switch,Dual,1,1250.1,Older,1
7,keyboard.png,OBJECT,keyboard,73,nonswitch,Dual,1,1254.4,Older,1
7,glass.png,OBJECT,glass,117,nonswitch,Dual,1,1254.4,Older,1
7,bell.png,OBJECT,bell,36,SingleNaming,SingleB,1,1258.4,Older,1
7,needle.png,OBJECT,needle,133,nonswitch,Dual,1,1258.7,Older,1
7,football.png,OBJECT,ball,121,X,Dual,7,1262.9,Older,1
7,kettle.png,OBJECT,kettle,31,SingleNaming,SingleB,1,1280.5,Older,1
7,axe.png,OBJECT,axe,101,nonswitch,Dual,1,1292.8,Older,1
7,pool.png,OBJECT,pool,149,switch,Dual,1,1309.9,Older,1
7,scissors.png,OBJECT,scissors,18,SingleNaming,SingleA,1,1313.2,Older,1
7,bed.png,OBJECT,bed,7,SingleNaming,SingleA,1,1314.1,Older,1
7,bell.png,OBJECT,bell,59,switch,Dual,1,1322.7,Older,1
7,chair.png,OBJECT,chair,85,nonswitch,Dual,1,1348.3,Older,1
7,kettle.png,OBJECT,kettle,45,nonswitch,Dual,1,1350.4,Older,1
7,pool.png,OBJECT,pool,36,nonswitch,Dual,1,1361.1,Older,1
7,pen.png,OBJECT,pen,6,SingleNaming,SingleA,1,1365.3,Older,1
7,plane.png,OBJECT,plane,104,nonswitch,Dual,1,1365.3,Older,1
7,pool.png,OBJECT,pool,140,nonswitch,Dual,1,1373.5,Older,1
7,bed.png,OBJECT,bed,110,nonswitch,Dual,1,1384.5,Older,1
7,glass.png,OBJECT,glass,21,nonswitch,Dual,1,1395.2,Older,1
7,book.png,OBJECT,book,35,switch,Dual,1,1403.7,Older,1
7,ladder.png,OBJECT,ladder,100,nonswitch,Dual,1,1408,Older,1
7,bed.png,OBJECT,bed,139,switch,Dual,1,1412.3,Older,1
7,keyboard.png,OBJECT,keyboard,28,SingleNaming,SingleB,1,1412.7,Older,1
7,pipe.png,OBJECT,pipe,137,switch,Dual,1,1416.5,Older,1
7,kettle.png,OBJECT,kettle,13,SingleNaming,SingleA,1,1420.8,Older,1
7,razor.png,OBJECT,razor,99,switch,Dual,1,1442.1,Older,1
7,book.png,OBJECT,book,30,nonswitch,Dual,1,1446.4,Older,1
7,scissors.png,OBJECT,scissors,37,nonswitch,Dual,1,1446.4,Older,1
7,car.png,OBJECT,car,3,switch,Dual,1,1467.7,Older,1
7,bell.png,OBJECT,bell,17,SingleNaming,SingleA,1,1480.5,Older,1
7,chair.png,OBJECT,chair,124,switch,Dual,1,1484.8,Older,1
7,book.png,OBJECT,book,132,switch,Dual,1,1489.1,Older,1
7,car.png,OBJECT,car,42,nonswitch,Dual,1,1493.3,Older,1
7,football.png,OBJECT,ball,33,SingleNaming,SingleB,1,1510.4,Older,1
7,pen.png,OBJECT,pen,33,switch,Dual,1,1523.2,Older,1
7,ladder.png,OBJECT,ladder,60,nonswitch,Dual,1,1526.9,Older,1
