"","participant","Item","Rule","Response","Trial","TrialType","accuracy","rt","Agegroup","Context","accuracy01","Rule_coded","Agegroup_coded","rawrt","condition"
"644",1,"broom","OBJECT","broom",1,"SingleNaming",1,6.86034915658487,"Younger","Single",1,-0.5,-0.5,953.7,"1SingleNamingOBJECT"
"934",1,"candle","OBJECT","candle",2,"SingleNaming",1,7.75065777962692,"Younger","Single",1,-0.5,-0.5,2323.1,"1SingleNamingOBJECT"
"1197",1,"suitcase","OBJECT","suitcase",3,"SingleNaming",1,7.16224244657628,"Younger","Single",1,-0.5,-0.5,1289.8,"1SingleNamingOBJECT"
"1471",1,"horse","OBJECT","horse",4,"SingleNaming",1,7.42821435171637,"Younger","Single",1,-0.5,-0.5,1682.8,"1SingleNamingOBJECT"
"1746",1,"soap","OBJECT","soap",5,"SingleNaming",1,7.0119350978918,"Younger","Single",1,-0.5,-0.5,1109.8,"1SingleNamingOBJECT"
"2022",1,"pen","OBJECT","pen",6,"SingleNaming",1,7.61982234439459,"Younger","Single",1,-0.5,-0.5,2038.2,"1SingleNamingOBJECT"
"2297",1,"newspaper","OBJECT","newspaper",7,"SingleNaming",1,7.27073033546935,"Younger","Single",1,-0.5,-0.5,1437.6,"1SingleNamingOBJECT"
"2579",1,"cup","OBJECT","cup",8,"SingleNaming",1,7.31867216576855,"Younger","Single",1,-0.5,-0.5,1508.2,"1SingleNamingOBJECT"
"2851",1,"knife","OBJECT","knife",9,"SingleNaming",1,7.23432146948388,"Younger","Single",1,-0.5,-0.5,1386.2,"1SingleNamingOBJECT"
"3107",1,"coat","OBJECT","coat",10,"SingleNaming",1,7.13401397319649,"Younger","Single",1,-0.5,-0.5,1253.9,"1SingleNamingOBJECT"
"3371",1,"strawberry","OBJECT","strawberry",11,"SingleNaming",1,7.03447603176129,"Younger","Single",1,-0.5,-0.5,1135.1,"1SingleNamingOBJECT"
"3638",1,"trophy","OBJECT","trophy",12,"SingleNaming",1,7.12028267783316,"Younger","Single",1,-0.5,-0.5,1236.8,"1SingleNamingOBJECT"
"3908",1,"eye","OBJECT","eye",13,"SingleNaming",1,7.29770057543226,"Younger","Single",1,-0.5,-0.5,1476.9,"1SingleNamingOBJECT"
"4190",1,"cake","OBJECT","cake",14,"SingleNaming",1,7.33119127241154,"Younger","Single",1,-0.5,-0.5,1527.2,"1SingleNamingOBJECT"
"4452",1,"teeth","OBJECT","teeth",15,"SingleNaming",1,6.9950332870892,"Younger","Single",1,-0.5,-0.5,1091.2,"1SingleNamingOBJECT"
"4697",1,"present","OBJECT","present",16,"SingleNaming",1,6.81289499795818,"Younger","Single",1,-0.5,-0.5,909.5,"1SingleNamingOBJECT"
"4974",1,"brain","OBJECT","brain",17,"SingleNaming",1,6.80572255341699,"Younger","Single",1,-0.5,-0.5,903,"1SingleNamingOBJECT"
"5253",1,"toy","OBJECT","toy",18,"SingleNaming",1,6.97867961731884,"Younger","Single",1,-0.5,-0.5,1073.5,"1SingleNamingOBJECT"
"5533",1,"ladder","OBJECT","ladder",19,"SingleNaming",1,7.208082068967,"Younger","Single",1,-0.5,-0.5,1350.3,"1SingleNamingOBJECT"
"5806",1,"plane","OBJECT","plane",20,"SingleNaming",1,7.19368581839511,"Younger","Single",1,-0.5,-0.5,1331,"1SingleNamingOBJECT"
"6070",1,"teeth","OBJECT","teeth",21,"SingleNaming",1,7.29858041035079,"Younger","Single",1,-0.5,-0.5,1478.2,"1SingleNamingOBJECT"
"6350",1,"coat","OBJECT","coat",22,"SingleNaming",1,7.7985640868416,"Younger","Single",1,-0.5,-0.5,2437.1,"1SingleNamingOBJECT"
"6622",1,"cake","OBJECT","cake",23,"SingleNaming",1,7.86060935016334,"Younger","Single",1,-0.5,-0.5,2593.1,"1SingleNamingOBJECT"
"6904",1,"toy","OBJECT","toy",24,"SingleNaming",1,7.42821435171637,"Younger","Single",1,-0.5,-0.5,1682.8,"1SingleNamingOBJECT"
"7187",1,"strawberry","OBJECT","strawberry",25,"SingleNaming",1,6.88673591175806,"Younger","Single",1,-0.5,-0.5,979.2,"1SingleNamingOBJECT"
"7467",1,"plane","OBJECT","plane",26,"SingleNaming",1,7.33836818062295,"Younger","Single",1,-0.5,-0.5,1538.2,"1SingleNamingOBJECT"
"7747",1,"knife","OBJECT","knife",27,"SingleNaming",1,6.92441571987524,"Younger","Single",1,-0.5,-0.5,1016.8,"1SingleNamingOBJECT"
"8025",1,"suitcase","OBJECT","suitcase",28,"SingleNaming",1,6.87554195661749,"Younger","Single",1,-0.5,-0.5,968.3,"1SingleNamingOBJECT"
"8295",1,"trophy","OBJECT","trophy",29,"SingleNaming",1,6.86807846182924,"Younger","Single",1,-0.5,-0.5,961.1,"1SingleNamingOBJECT"
"8574",1,"ladder","OBJECT","ladder",30,"SingleNaming",1,7.86465038169823,"Younger","Single",1,-0.5,-0.5,2603.6,"1SingleNamingOBJECT"
"8848",1,"eye","OBJECT","eye",31,"SingleNaming",1,6.93653708040759,"Younger","Single",1,-0.5,-0.5,1029.2,"1SingleNamingOBJECT"
"9125",1,"newspaper","OBJECT","newspaper",32,"SingleNaming",1,7.09365376426643,"Younger","Single",1,-0.5,-0.5,1204.3,"1SingleNamingOBJECT"
"9405",1,"candle","OBJECT","candle",33,"SingleNaming",1,6.99154480471182,"Younger","Single",1,-0.5,-0.5,1087.4,"1SingleNamingOBJECT"
"9687",1,"present","OBJECT","present",34,"SingleNaming",1,7.25099031055417,"Younger","Single",1,-0.5,-0.5,1409.5,"1SingleNamingOBJECT"
"9959",1,"horse","OBJECT","horse",35,"SingleNaming",1,7.59880025145021,"Younger","Single",1,-0.5,-0.5,1995.8,"1SingleNamingOBJECT"
"10242",1,"brain","OBJECT","brain",36,"SingleNaming",1,7.09821033567281,"Younger","Single",1,-0.5,-0.5,1209.8,"1SingleNamingOBJECT"
"10524",1,"cup","OBJECT","cup",37,"SingleNaming",1,7.24029120706754,"Younger","Single",1,-0.5,-0.5,1394.5,"1SingleNamingOBJECT"
"10812",1,"pen","OBJECT","pen",38,"SingleNaming",1,7.46118051636695,"Younger","Single",1,-0.5,-0.5,1739.2,"1SingleNamingOBJECT"
"11096",1,"soap","OBJECT","soap",39,"SingleNaming",1,7.83367945982453,"Younger","Single",1,-0.5,-0.5,2524.2,"1SingleNamingOBJECT"
"11369",1,"broom","OBJECT","broom",40,"SingleNaming",1,6.70600622452208,"Younger","Single",1,-0.5,-0.5,817.3,"1SingleNamingOBJECT"
"645",1,"teeth","ACTION","brush",1,"SingleNaming",1,7.20985787409515,"Younger","Single",1,0.5,-0.5,1352.7,"1SingleNamingACTION"
"933",1,"strawberry","ACTION","eat",2,"SingleNaming",1,6.82045295057934,"Younger","Single",1,0.5,-0.5,916.4,"1SingleNamingACTION"
"1198",1,"cup","ACTION","drink",3,"SingleNaming",1,7.18174402430192,"Younger","Single",1,0.5,-0.5,1315.2,"1SingleNamingACTION"
"1470",1,"broom","ACTION","sweep",4,"SingleNaming",1,7.18546277028671,"Younger","Single",1,0.5,-0.5,1320.1,"1SingleNamingACTION"
"1745",1,"eye","ACTION","see",5,"SingleNaming",1,6.76975678082485,"Younger","Single",1,0.5,-0.5,871.1,"1SingleNamingACTION"
"2021",1,"present","ACTION","give",6,"SingleNaming",1,7.22737196996426,"Younger","Single",1,0.5,-0.5,1376.6,"1SingleNamingACTION"
"2296",1,"suitcase","ACTION","pack",7,"SingleNaming",1,6.94678366594962,"Younger","Single",1,0.5,-0.5,1039.8,"1SingleNamingACTION"
"2578",1,"candle","ACTION","light",8,"SingleNaming",1,6.78275878880745,"Younger","Single",1,0.5,-0.5,882.5,"1SingleNamingACTION"
"2850",1,"pen","ACTION","write",9,"SingleNaming",1,6.71768376872812,"Younger","Single",1,0.5,-0.5,826.9,"1SingleNamingACTION"
"3108",1,"toy","ACTION","play",10,"SingleNaming",1,7.3960898649126,"Younger","Single",1,0.5,-0.5,1629.6,"1SingleNamingACTION"
"3370",1,"horse","ACTION","ride",11,"SingleNaming",1,6.683235781488,"Younger","Single",1,0.5,-0.5,798.9,"1SingleNamingACTION"
"3637",1,"coat","ACTION","wear",12,"SingleNaming",1,6.78897174299217,"Younger","Single",1,0.5,-0.5,888,"1SingleNamingACTION"
"3907",1,"plane","ACTION","fly",13,"SingleNaming",1,6.65479664258874,"Younger","Single",1,0.5,-0.5,776.5,"1SingleNamingACTION"
"4189",1,"cake","ACTION","bake",14,"SingleNaming",1,7.27572618266272,"Younger","Single",1,0.5,-0.5,1444.8,"1SingleNamingACTION"
"4451",1,"ladder","ACTION","climb",15,"SingleNaming",1,6.5738198220129,"Younger","Single",1,0.5,-0.5,716.1,"1SingleNamingACTION"
"4698",1,"knife","ACTION","cut",16,"SingleNaming",1,7.50494206839617,"Younger","Single",1,0.5,-0.5,1817,"1SingleNamingACTION"
"4975",1,"soap","ACTION","wash",17,"SingleNaming",1,6.87295677343944,"Younger","Single",1,0.5,-0.5,965.8,"1SingleNamingACTION"
"5252",1,"newspaper","ACTION","read",18,"SingleNaming",1,6.85467090788968,"Younger","Single",1,0.5,-0.5,948.3,"1SingleNamingACTION"
"5532",1,"brain","ACTION","think",19,"SingleNaming",1,6.68273496765507,"Younger","Single",1,0.5,-0.5,798.5,"1SingleNamingACTION"
"5805",1,"trophy","ACTION","win",20,"SingleNaming",1,6.57577294763378,"Younger","Single",1,0.5,-0.5,717.5,"1SingleNamingACTION"
"6069",1,"knife","ACTION","cut",21,"SingleNaming",1,6.89254011317566,"Younger","Single",1,0.5,-0.5,984.9,"1SingleNamingACTION"
"6349",1,"strawberry","ACTION","eat",22,"SingleNaming",1,6.79525824775499,"Younger","Single",1,0.5,-0.5,893.6,"1SingleNamingACTION"
"6621",1,"cup","ACTION","drink",23,"SingleNaming",1,7.25290405108225,"Younger","Single",1,0.5,-0.5,1412.2,"1SingleNamingACTION"
"6903",1,"brain","ACTION","think",24,"SingleNaming",1,6.98628915663624,"Younger","Single",1,0.5,-0.5,1081.7,"1SingleNamingACTION"
"7188",1,"eye","ACTION","see",25,"SingleNaming",1,6.9987835773297,"Younger","Single",1,0.5,-0.5,1095.3,"1SingleNamingACTION"
"7466",1,"ladder","ACTION","climb",26,"SingleNaming",1,6.91899191090813,"Younger","Single",1,0.5,-0.5,1011.3,"1SingleNamingACTION"
"7748",1,"suitcase","ACTION","pack",27,"SingleNaming",1,7.01965437147955,"Younger","Single",1,0.5,-0.5,1118.4,"1SingleNamingACTION"
"8026",1,"teeth","ACTION","brush",28,"SingleNaming",1,7.44530072744751,"Younger","Single",1,0.5,-0.5,1711.8,"1SingleNamingACTION"
"8296",1,"pen","ACTION","write",29,"SingleNaming",1,7.51898716634081,"Younger","Single",1,0.5,-0.5,1842.7,"1SingleNamingACTION"
"8573",1,"toy","ACTION","play",30,"SingleNaming",1,7.26290906654893,"Younger","Single",1,0.5,-0.5,1426.4,"1SingleNamingACTION"
"8849",1,"horse","ACTION","ride",31,"SingleNaming",1,7.13680137594896,"Younger","Single",1,0.5,-0.5,1257.4,"1SingleNamingACTION"
"9124",1,"coat","ACTION","wear",32,"SingleNaming",1,6.9418668086109,"Younger","Single",1,0.5,-0.5,1034.7,"1SingleNamingACTION"
"9404",1,"plane","ACTION","fly",33,"SingleNaming",1,6.95949347438655,"Younger","Single",1,0.5,-0.5,1053.1,"1SingleNamingACTION"
"9958",1,"candle","ACTION","light",35,"SingleNaming",1,7.27931883541462,"Younger","Single",1,0.5,-0.5,1450,"1SingleNamingACTION"
"10241",1,"broom","ACTION","sweep",36,"SingleNaming",1,6.96508034560141,"Younger","Single",1,0.5,-0.5,1059,"1SingleNamingACTION"
"10523",1,"soap","ACTION","wash",37,"SingleNaming",1,7.00922824791277,"Younger","Single",1,0.5,-0.5,1106.8,"1SingleNamingACTION"
"10811",1,"newspaper","ACTION","read",38,"SingleNaming",1,6.9918206540998,"Younger","Single",1,0.5,-0.5,1087.7,"1SingleNamingACTION"
"11095",1,"present","ACTION","give",39,"SingleNaming",1,7.68358782616069,"Younger","Single",1,0.5,-0.5,2172.4,"1SingleNamingACTION"
"646",2,"broom","OBJECT","broom",1,"SingleNaming",1,7.2258453076053,"Younger","Single",1,-0.5,-0.5,1374.5,"2SingleNamingOBJECT"
"935",2,"candle","OBJECT","candle",2,"SingleNaming",1,6.68373634463197,"Younger","Single",1,-0.5,-0.5,799.3,"2SingleNamingOBJECT"
"1199",2,"suitcase","OBJECT","suitcase",3,"SingleNaming",1,6.79972453476843,"Younger","Single",1,-0.5,-0.5,897.6,"2SingleNamingOBJECT"
"1473",2,"horse","OBJECT","horse",4,"SingleNaming",1,6.61820479547033,"Younger","Single",1,-0.5,-0.5,748.6,"2SingleNamingOBJECT"
"1747",2,"soap","OBJECT","soap",5,"SingleNaming",1,6.74875954749168,"Younger","Single",1,-0.5,-0.5,853,"2SingleNamingOBJECT"
"2023",2,"pen","OBJECT","pen",6,"SingleNaming",1,6.64600082854027,"Younger","Single",1,-0.5,-0.5,769.7,"2SingleNamingOBJECT"
"2298",2,"newspaper","OBJECT","newspaper",7,"SingleNaming",1,6.71949612952143,"Younger","Single",1,-0.5,-0.5,828.4,"2SingleNamingOBJECT"
"2580",2,"cup","OBJECT","cup",8,"SingleNaming",1,6.60988818147199,"Younger","Single",1,-0.5,-0.5,742.4,"2SingleNamingOBJECT"
"2852",2,"knife","OBJECT","knife",9,"SingleNaming",1,6.55478773983173,"Younger","Single",1,-0.5,-0.5,702.6,"2SingleNamingOBJECT"
"3110",2,"coat","OBJECT","coat",10,"SingleNaming",1,6.84481547920826,"Younger","Single",1,-0.5,-0.5,939,"2SingleNamingOBJECT"
"3372",2,"strawberry","OBJECT","strawberry",11,"SingleNaming",1,6.66057514983969,"Younger","Single",1,-0.5,-0.5,781,"2SingleNamingOBJECT"
"3909",2,"eye","OBJECT","eye",13,"SingleNaming",1,6.70122299347312,"Younger","Single",1,-0.5,-0.5,813.4,"2SingleNamingOBJECT"
"4191",2,"cake","OBJECT","cake",14,"SingleNaming",1,6.74875954749168,"Younger","Single",1,-0.5,-0.5,853,"2SingleNamingOBJECT"
"4453",2,"teeth","OBJECT","teeth",15,"SingleNaming",1,6.60665018619822,"Younger","Single",1,-0.5,-0.5,740,"2SingleNamingOBJECT"
"4699",2,"present","OBJECT","present",16,"SingleNaming",1,6.66517403377545,"Younger","Single",1,-0.5,-0.5,784.6,"2SingleNamingOBJECT"
"4976",2,"brain","OBJECT","brain",17,"SingleNaming",1,6.53712628570943,"Younger","Single",1,-0.5,-0.5,690.3,"2SingleNamingOBJECT"
"5255",2,"toy","OBJECT","toy",18,"SingleNaming",1,7.01867033955329,"Younger","Single",1,-0.5,-0.5,1117.3,"2SingleNamingOBJECT"
"5534",2,"ladder","OBJECT","ladder",19,"SingleNaming",1,6.51708025634661,"Younger","Single",1,-0.5,-0.5,676.6,"2SingleNamingOBJECT"
"5807",2,"plane","OBJECT","plane",20,"SingleNaming",1,6.69542802010178,"Younger","Single",1,-0.5,-0.5,808.7,"2SingleNamingOBJECT"
"6072",2,"teeth","OBJECT","teeth",21,"SingleNaming",1,6.79425057818532,"Younger","Single",1,-0.5,-0.5,892.7,"2SingleNamingOBJECT"
"6352",2,"coat","OBJECT","coat",22,"SingleNaming",1,6.90062995403955,"Younger","Single",1,-0.5,-0.5,992.9,"2SingleNamingOBJECT"
"6623",2,"cake","OBJECT","cake",23,"SingleNaming",1,6.89740186690265,"Younger","Single",1,-0.5,-0.5,989.7,"2SingleNamingOBJECT"
"6905",2,"toy","OBJECT","toy",24,"SingleNaming",1,6.65234676708065,"Younger","Single",1,-0.5,-0.5,774.6,"2SingleNamingOBJECT"
"7189",2,"strawberry","OBJECT","strawberry",25,"SingleNaming",1,6.58575777611524,"Younger","Single",1,-0.5,-0.5,724.7,"2SingleNamingOBJECT"
"7468",2,"plane","OBJECT","plane",26,"SingleNaming",1,6.40191719672719,"Younger","Single",1,-0.5,-0.5,603,"2SingleNamingOBJECT"
"7749",2,"knife","OBJECT","knife",27,"SingleNaming",1,6.47527862162712,"Younger","Single",1,-0.5,-0.5,648.9,"2SingleNamingOBJECT"
"8027",2,"suitcase","OBJECT","suitcase",28,"SingleNaming",1,6.4831073514572,"Younger","Single",1,-0.5,-0.5,654,"2SingleNamingOBJECT"
"8297",2,"trophy","OBJECT","trophy",29,"SingleNaming",1,6.33647168617903,"Younger","Single",1,-0.5,-0.5,564.8,"2SingleNamingOBJECT"
"8575",2,"ladder","OBJECT","ladder",30,"SingleNaming",1,6.35628125673834,"Younger","Single",1,-0.5,-0.5,576.1,"2SingleNamingOBJECT"
"8850",2,"eye","OBJECT","eye",31,"SingleNaming",1,6.3173451758733,"Younger","Single",1,-0.5,-0.5,554.1,"2SingleNamingOBJECT"
"9126",2,"newspaper","OBJECT","newspaper",32,"SingleNaming",1,6.40671495595094,"Younger","Single",1,-0.5,-0.5,605.9,"2SingleNamingOBJECT"
"9406",2,"candle","OBJECT","candle",33,"SingleNaming",1,6.56244409369372,"Younger","Single",1,-0.5,-0.5,708,"2SingleNamingOBJECT"
"9689",2,"present","OBJECT","present",34,"SingleNaming",1,6.7843439340669,"Younger","Single",1,-0.5,-0.5,883.9,"2SingleNamingOBJECT"
"9960",2,"horse","OBJECT","horse",35,"SingleNaming",1,6.59769125563723,"Younger","Single",1,-0.5,-0.5,733.4,"2SingleNamingOBJECT"
"10243",2,"brain","OBJECT","brain",36,"SingleNaming",1,6.30791627555584,"Younger","Single",1,-0.5,-0.5,548.9,"2SingleNamingOBJECT"
"10525",2,"cup","OBJECT","cup",37,"SingleNaming",1,6.61056144615776,"Younger","Single",1,-0.5,-0.5,742.9,"2SingleNamingOBJECT"
"10813",2,"pen","OBJECT","pen",38,"SingleNaming",1,6.93537044601511,"Younger","Single",1,-0.5,-0.5,1028,"2SingleNamingOBJECT"
"11097",2,"soap","OBJECT","soap",39,"SingleNaming",1,6.36647044773144,"Younger","Single",1,-0.5,-0.5,582,"2SingleNamingOBJECT"
"11370",2,"broom","OBJECT","broom",40,"SingleNaming",1,6.87067627074072,"Younger","Single",1,-0.5,-0.5,963.6,"2SingleNamingOBJECT"
"647",2,"teeth","ACTION","brush",1,"SingleNaming",1,6.97774765080217,"Younger","Single",1,0.5,-0.5,1072.5,"2SingleNamingACTION"
"936",2,"strawberry","ACTION","eat",2,"SingleNaming",1,7.59307188042689,"Younger","Single",1,0.5,-0.5,1984.4,"2SingleNamingACTION"
"1200",2,"cup","ACTION","drink",3,"SingleNaming",1,7.32059314141971,"Younger","Single",1,0.5,-0.5,1511.1,"2SingleNamingACTION"
"1472",2,"broom","ACTION","sweep",4,"SingleNaming",1,6.56357339929087,"Younger","Single",1,0.5,-0.5,708.8,"2SingleNamingACTION"
"1748",2,"eye","ACTION","see",5,"SingleNaming",1,6.94089987757444,"Younger","Single",1,0.5,-0.5,1033.7,"2SingleNamingACTION"
"2299",2,"suitcase","ACTION","pack",7,"SingleNaming",1,6.90203897198603,"Younger","Single",1,0.5,-0.5,994.3,"2SingleNamingACTION"
"2581",2,"candle","ACTION","light",8,"SingleNaming",1,6.86849456502883,"Younger","Single",1,0.5,-0.5,961.5,"2SingleNamingACTION"
"2853",2,"pen","ACTION","write",9,"SingleNaming",1,6.7854746442733,"Younger","Single",1,0.5,-0.5,884.9,"2SingleNamingACTION"
"3109",2,"toy","ACTION","play",10,"SingleNaming",1,6.73101810048208,"Younger","Single",1,0.5,-0.5,838,"2SingleNamingACTION"
"3639",2,"coat","ACTION","wear",12,"SingleNaming",1,6.88243747099785,"Younger","Single",1,0.5,-0.5,975,"2SingleNamingACTION"
"3910",2,"plane","ACTION","fly",13,"SingleNaming",1,6.96262218042298,"Younger","Single",1,0.5,-0.5,1056.4,"2SingleNamingACTION"
"4454",2,"ladder","ACTION","climb",15,"SingleNaming",1,6.68248446665175,"Younger","Single",1,0.5,-0.5,798.3,"2SingleNamingACTION"
"4700",2,"knife","ACTION","cut",16,"SingleNaming",1,6.71877157931463,"Younger","Single",1,0.5,-0.5,827.8,"2SingleNamingACTION"
"4977",2,"soap","ACTION","wash",17,"SingleNaming",1,7.47511245348378,"Younger","Single",1,0.5,-0.5,1763.6,"2SingleNamingACTION"
"5254",2,"newspaper","ACTION","read",18,"SingleNaming",1,6.79122146272619,"Younger","Single",1,0.5,-0.5,890,"2SingleNamingACTION"
"5808",2,"trophy","ACTION","win",20,"SingleNaming",1,6.95854344581424,"Younger","Single",1,0.5,-0.5,1052.1,"2SingleNamingACTION"
"6071",2,"knife","ACTION","cut",21,"SingleNaming",1,6.77776048236595,"Younger","Single",1,0.5,-0.5,878.1,"2SingleNamingACTION"
"6351",2,"strawberry","ACTION","eat",22,"SingleNaming",1,6.7244332218546,"Younger","Single",1,0.5,-0.5,832.5,"2SingleNamingACTION"
"6624",2,"cup","ACTION","drink",23,"SingleNaming",1,7.05012252026906,"Younger","Single",1,0.5,-0.5,1153,"2SingleNamingACTION"
"7190",2,"eye","ACTION","see",25,"SingleNaming",1,7.09531310257134,"Younger","Single",1,0.5,-0.5,1206.3,"2SingleNamingACTION"
"7469",2,"ladder","ACTION","climb",26,"SingleNaming",1,6.90565307089027,"Younger","Single",1,0.5,-0.5,997.9,"2SingleNamingACTION"
"7750",2,"suitcase","ACTION","pack",27,"SingleNaming",1,7.7478127048567,"Younger","Single",1,0.5,-0.5,2316.5,"2SingleNamingACTION"
"8028",2,"teeth","ACTION","brush",28,"SingleNaming",1,7.19270863186266,"Younger","Single",1,0.5,-0.5,1329.7,"2SingleNamingACTION"
"8298",2,"pen","ACTION","write",29,"SingleNaming",1,6.89962229575195,"Younger","Single",1,0.5,-0.5,991.9,"2SingleNamingACTION"
"8576",2,"toy","ACTION","play",30,"SingleNaming",1,6.81245509912781,"Younger","Single",1,0.5,-0.5,909.1,"2SingleNamingACTION"
"8851",2,"horse","ACTION","ride",31,"SingleNaming",1,7.16216491217035,"Younger","Single",1,0.5,-0.5,1289.7,"2SingleNamingACTION"
"9127",2,"coat","ACTION","wear",32,"SingleNaming",1,7.5045567437554,"Younger","Single",1,0.5,-0.5,1816.3,"2SingleNamingACTION"
"9407",2,"plane","ACTION","fly",33,"SingleNaming",1,6.99108488656914,"Younger","Single",1,0.5,-0.5,1086.9,"2SingleNamingACTION"
"9690",2,"cake","ACTION","bake",34,"SingleNaming",1,7.68354179306288,"Younger","Single",1,0.5,-0.5,2172.3,"2SingleNamingACTION"
"9961",2,"candle","ACTION","light",35,"SingleNaming",1,7.72894380942297,"Younger","Single",1,0.5,-0.5,2273.2,"2SingleNamingACTION"
"10244",2,"broom","ACTION","sweep",36,"SingleNaming",1,6.91085048388944,"Younger","Single",1,0.5,-0.5,1003.1,"2SingleNamingACTION"
"10526",2,"soap","ACTION","wash",37,"SingleNaming",1,7.06090545847581,"Younger","Single",1,0.5,-0.5,1165.5,"2SingleNamingACTION"
"10814",2,"newspaper","ACTION","read",38,"SingleNaming",1,6.949472872334,"Younger","Single",1,0.5,-0.5,1042.6,"2SingleNamingACTION"
"11098",2,"present","ACTION","give",39,"SingleNaming",1,7.18371895847972,"Younger","Single",1,0.5,-0.5,1317.8,"2SingleNamingACTION"
"11371",2,"trophy","ACTION","win",40,"SingleNaming",1,7.91688040114871,"Younger","Single",1,0.5,-0.5,2743.2,"2SingleNamingACTION"
"648",3,"broom","OBJECT","broom",1,"SingleNaming",1,6.93731408122368,"Younger","Single",1,-0.5,-0.5,1030,"3SingleNamingOBJECT"
"937",3,"ladder","OBJECT","ladder",2,"SingleNaming",1,7.03447603176129,"Younger","Single",1,-0.5,-0.5,1135.1,"3SingleNamingOBJECT"
"1202",3,"coat","OBJECT","coat",3,"SingleNaming",1,6.93731408122368,"Younger","Single",1,-0.5,-0.5,1030,"3SingleNamingOBJECT"
"1475",3,"newspaper","OBJECT","newspaper",4,"SingleNaming",1,7.3213869497567,"Younger","Single",1,-0.5,-0.5,1512.3,"3SingleNamingOBJECT"
"1750",3,"suitcase","OBJECT","suitcase",5,"SingleNaming",1,7.47862182483325,"Younger","Single",1,-0.5,-0.5,1769.8,"3SingleNamingOBJECT"
"2025",3,"plane","OBJECT","plane",6,"SingleNaming",1,7.55171221535131,"Younger","Single",1,-0.5,-0.5,1904,"3SingleNamingOBJECT"
"2300",3,"soap","OBJECT","soap",7,"SingleNaming",1,6.7895346475947,"Younger","Single",1,-0.5,-0.5,888.5,"3SingleNamingOBJECT"
"2582",3,"eye","OBJECT","eye",8,"SingleNaming",1,6.97307474510278,"Younger","Single",1,-0.5,-0.5,1067.5,"3SingleNamingOBJECT"
"2854",3,"present","OBJECT","present",9,"SingleNaming",1,7.19638690046951,"Younger","Single",1,-0.5,-0.5,1334.6,"3SingleNamingOBJECT"
"3111",3,"trophy","OBJECT","trophy",10,"SingleNaming",1,6.89537900791408,"Younger","Single",1,-0.5,-0.5,987.7,"3SingleNamingOBJECT"
"3373",3,"teeth","OBJECT","teeth",11,"SingleNaming",1,7.20325670048605,"Younger","Single",1,-0.5,-0.5,1343.8,"3SingleNamingOBJECT"
"3641",3,"pen","OBJECT","pen",12,"SingleNaming",1,6.91204606039929,"Younger","Single",1,-0.5,-0.5,1004.3,"3SingleNamingOBJECT"
"3911",3,"toy","OBJECT","toy",13,"SingleNaming",1,6.82567716794653,"Younger","Single",1,-0.5,-0.5,921.2,"3SingleNamingOBJECT"
"4193",3,"knife","OBJECT","knife",14,"SingleNaming",1,7.20049951702618,"Younger","Single",1,-0.5,-0.5,1340.1,"3SingleNamingOBJECT"
"4455",3,"cup","OBJECT","cup",15,"SingleNaming",1,6.86160662295616,"Younger","Single",1,-0.5,-0.5,954.9,"3SingleNamingOBJECT"
"4702",3,"horse","OBJECT","horse",16,"SingleNaming",1,7.32620242131347,"Younger","Single",1,-0.5,-0.5,1519.6,"3SingleNamingOBJECT"
"5256",3,"brain","OBJECT","brain",18,"SingleNaming",1,6.62579016685959,"Younger","Single",1,-0.5,-0.5,754.3,"3SingleNamingOBJECT"
"5535",3,"strawberry","OBJECT","strawberry",19,"SingleNaming",1,6.45315244631242,"Younger","Single",1,-0.5,-0.5,634.7,"3SingleNamingOBJECT"
"5809",3,"cake","OBJECT","cake",20,"SingleNaming",1,6.74311645704049,"Younger","Single",1,-0.5,-0.5,848.2,"3SingleNamingOBJECT"
"6073",3,"knife","OBJECT","knife",21,"SingleNaming",1,7.2258453076053,"Younger","Single",1,-0.5,-0.5,1374.5,"3SingleNamingOBJECT"
"6354",3,"present","OBJECT","present",22,"SingleNaming",1,7.13473147631652,"Younger","Single",1,-0.5,-0.5,1254.8,"3SingleNamingOBJECT"
"6626",3,"horse","OBJECT","horse",23,"SingleNaming",1,6.81377421551124,"Younger","Single",1,-0.5,-0.5,910.3,"3SingleNamingOBJECT"
"6907",3,"teeth","OBJECT","teeth",24,"SingleNaming",1,7.38000638076835,"Younger","Single",1,-0.5,-0.5,1603.6,"3SingleNamingOBJECT"
"7191",3,"newspaper","OBJECT","newspaper",25,"SingleNaming",1,7.14053227926459,"Younger","Single",1,-0.5,-0.5,1262.1,"3SingleNamingOBJECT"
"7470",3,"candle","OBJECT","candle",26,"SingleNaming",1,6.88694013926822,"Younger","Single",1,-0.5,-0.5,979.4,"3SingleNamingOBJECT"
"7751",3,"brain","OBJECT","brain",27,"SingleNaming",1,6.68648497204961,"Younger","Single",1,-0.5,-0.5,801.5,"3SingleNamingOBJECT"
"8029",3,"plane","OBJECT","plane",28,"SingleNaming",1,6.83346267440028,"Younger","Single",1,-0.5,-0.5,928.4,"3SingleNamingOBJECT"
"8299",3,"suitcase","OBJECT","suitcase",29,"SingleNaming",1,7.37054545370957,"Younger","Single",1,-0.5,-0.5,1588.5,"3SingleNamingOBJECT"
"8577",3,"trophy","OBJECT","trophy",30,"SingleNaming",1,6.56074774044554,"Younger","Single",1,-0.5,-0.5,706.8,"3SingleNamingOBJECT"
"8852",3,"pen","OBJECT","pen",31,"SingleNaming",1,6.47574083564044,"Younger","Single",1,-0.5,-0.5,649.2,"3SingleNamingOBJECT"
"9128",3,"strawberry","OBJECT","strawberry",32,"SingleNaming",1,7.52585558521917,"Younger","Single",1,-0.5,-0.5,1855.4,"3SingleNamingOBJECT"
"9409",3,"ladder","OBJECT","ladder",33,"SingleNaming",1,7.29220101986623,"Younger","Single",1,-0.5,-0.5,1468.8,"3SingleNamingOBJECT"
"9692",3,"cake","OBJECT","cake",34,"SingleNaming",1,7.11004284841697,"Younger","Single",1,-0.5,-0.5,1224.2,"3SingleNamingOBJECT"
"9963",3,"coat","OBJECT","coat",35,"SingleNaming",1,7.05978943483764,"Younger","Single",1,-0.5,-0.5,1164.2,"3SingleNamingOBJECT"
"10245",3,"toy","OBJECT","toy",36,"SingleNaming",1,6.87925291850943,"Younger","Single",1,-0.5,-0.5,971.9,"3SingleNamingOBJECT"
"10527",3,"broom","OBJECT","broom",37,"SingleNaming",1,6.85856503479136,"Younger","Single",1,-0.5,-0.5,952,"3SingleNamingOBJECT"
"10815",3,"eye","OBJECT","eye",38,"SingleNaming",1,6.74358793276822,"Younger","Single",1,-0.5,-0.5,848.6,"3SingleNamingOBJECT"
"11099",3,"soap","OBJECT","soap",39,"SingleNaming",1,6.66364342123173,"Younger","Single",1,-0.5,-0.5,783.4,"3SingleNamingOBJECT"
"11372",3,"cup","OBJECT","cup",40,"SingleNaming",1,6.77730484959807,"Younger","Single",1,-0.5,-0.5,877.7,"3SingleNamingOBJECT"
"649",3,"brain","ACTION","think",1,"SingleNaming",1,7.80204577057662,"Younger","Single",1,0.5,-0.5,2445.6,"3SingleNamingACTION"
"938",3,"horse","ACTION","ride",2,"SingleNaming",1,7.2872185845513,"Younger","Single",1,0.5,-0.5,1461.5,"3SingleNamingACTION"
"1201",3,"eye","ACTION","see",3,"SingleNaming",1,6.89142262436124,"Younger","Single",1,0.5,-0.5,983.8,"3SingleNamingACTION"
"1474",3,"broom","ACTION","sweep",4,"SingleNaming",1,7.0342117029347,"Younger","Single",1,0.5,-0.5,1134.8,"3SingleNamingACTION"
"1749",3,"coat","ACTION","wear",5,"SingleNaming",1,7.02811277564587,"Younger","Single",1,0.5,-0.5,1127.9,"3SingleNamingACTION"
"2024",3,"soap","ACTION","wash",6,"SingleNaming",1,7.11428152447291,"Younger","Single",1,0.5,-0.5,1229.4,"3SingleNamingACTION"
"2301",3,"toy","ACTION","play",7,"SingleNaming",1,7.54072773650601,"Younger","Single",1,0.5,-0.5,1883.2,"3SingleNamingACTION"
"2583",3,"cup","ACTION","drink",8,"SingleNaming",1,7.32019600082673,"Younger","Single",1,0.5,-0.5,1510.5,"3SingleNamingACTION"
"2855",3,"strawberry","ACTION","eat",9,"SingleNaming",1,7.3603583935477,"Younger","Single",1,0.5,-0.5,1572.4,"3SingleNamingACTION"
"3112",3,"knife","ACTION","cut",10,"SingleNaming",1,7.28974703090466,"Younger","Single",1,0.5,-0.5,1465.2,"3SingleNamingACTION"
"3642",3,"candle","ACTION","light",12,"SingleNaming",1,7.39903104350341,"Younger","Single",1,0.5,-0.5,1634.4,"3SingleNamingACTION"
"3912",3,"ladder","ACTION","climb",13,"SingleNaming",1,7.09348767889817,"Younger","Single",1,0.5,-0.5,1204.1,"3SingleNamingACTION"
"4192",3,"trophy","ACTION","win",14,"SingleNaming",1,7.04403289727469,"Younger","Single",1,0.5,-0.5,1146,"3SingleNamingACTION"
"4701",3,"newspaper","ACTION","read",16,"SingleNaming",1,6.94080313302834,"Younger","Single",1,0.5,-0.5,1033.6,"3SingleNamingACTION"
"4978",3,"present","ACTION","give",17,"SingleNaming",1,6.93605114813698,"Younger","Single",1,0.5,-0.5,1028.7,"3SingleNamingACTION"
"5257",3,"pen","ACTION","write",18,"SingleNaming",1,6.82165257992873,"Younger","Single",1,0.5,-0.5,917.5,"3SingleNamingACTION"
"5536",3,"suitcase","ACTION","pack",19,"SingleNaming",1,7.36365998384837,"Younger","Single",1,0.5,-0.5,1577.6,"3SingleNamingACTION"
"5810",3,"plane","ACTION","fly",20,"SingleNaming",1,7.47244389263828,"Younger","Single",1,0.5,-0.5,1758.9,"3SingleNamingACTION"
"6074",3,"cup","ACTION","drink",21,"SingleNaming",1,7.47454527066556,"Younger","Single",1,0.5,-0.5,1762.6,"3SingleNamingACTION"
"6353",3,"broom","ACTION","sweep",22,"SingleNaming",1,6.66670230712436,"Younger","Single",1,0.5,-0.5,785.8,"3SingleNamingACTION"
"6625",3,"plane","ACTION","fly",23,"SingleNaming",1,6.67733531869715,"Younger","Single",1,0.5,-0.5,794.2,"3SingleNamingACTION"
"6906",3,"horse","ACTION","ride",24,"SingleNaming",1,6.74793857752825,"Younger","Single",1,0.5,-0.5,852.3,"3SingleNamingACTION"
"7192",3,"cake","ACTION","bake",25,"SingleNaming",1,7.64094014657361,"Younger","Single",1,0.5,-0.5,2081.7,"3SingleNamingACTION"
"7471",3,"present","ACTION","give",26,"SingleNaming",1,7.30114780585603,"Younger","Single",1,0.5,-0.5,1482,"3SingleNamingACTION"
"7752",3,"newspaper","ACTION","read",27,"SingleNaming",1,7.05660622571449,"Younger","Single",1,0.5,-0.5,1160.5,"3SingleNamingACTION"
"8030",3,"suitcase","ACTION","pack",28,"SingleNaming",1,7.37506779041638,"Younger","Single",1,0.5,-0.5,1595.7,"3SingleNamingACTION"
"8300",3,"teeth","ACTION","brush",29,"SingleNaming",1,7.44102709157796,"Younger","Single",1,0.5,-0.5,1704.5,"3SingleNamingACTION"
"8578",3,"coat","ACTION","wear",30,"SingleNaming",1,7.33334975838547,"Younger","Single",1,0.5,-0.5,1530.5,"3SingleNamingACTION"
"8853",3,"pen","ACTION","write",31,"SingleNaming",1,7.08740660722021,"Younger","Single",1,0.5,-0.5,1196.8,"3SingleNamingACTION"
"9408",3,"brain","ACTION","think",33,"SingleNaming",1,6.7563508248229,"Younger","Single",1,0.5,-0.5,859.5,"3SingleNamingACTION"
"9691",3,"knife","ACTION","cut",34,"SingleNaming",1,6.6682282484174,"Younger","Single",1,0.5,-0.5,787,"3SingleNamingACTION"
"9962",3,"candle","ACTION","light",35,"SingleNaming",1,6.77730484959807,"Younger","Single",1,0.5,-0.5,877.7,"3SingleNamingACTION"
"10246",3,"ladder","ACTION","climb",36,"SingleNaming",1,7.17165682276851,"Younger","Single",1,0.5,-0.5,1302,"3SingleNamingACTION"
"10528",3,"strawberry","ACTION","eat",37,"SingleNaming",1,7.0472563177597,"Younger","Single",1,0.5,-0.5,1149.7,"3SingleNamingACTION"
"10816",3,"eye","ACTION","see",38,"SingleNaming",1,6.80172787433661,"Younger","Single",1,0.5,-0.5,899.4,"3SingleNamingACTION"
"11100",3,"trophy","ACTION","win",39,"SingleNaming",1,7.49892510342962,"Younger","Single",1,0.5,-0.5,1806.1,"3SingleNamingACTION"
"11373",3,"toy","ACTION","play",40,"SingleNaming",1,7.81189245468372,"Younger","Single",1,0.5,-0.5,2469.8,"3SingleNamingACTION"
"650",4,"brain","ACTION","think",1,"SingleNaming",1,7.11842130878523,"Younger","Single",1,0.5,-0.5,1234.5,"4SingleNamingACTION"
"940",4,"horse","ACTION","ride",2,"SingleNaming",1,7.02375895473844,"Younger","Single",1,0.5,-0.5,1123,"4SingleNamingACTION"
"1204",4,"eye","ACTION","see",3,"SingleNaming",1,7.44670177846478,"Younger","Single",1,0.5,-0.5,1714.2,"4SingleNamingACTION"
"1477",4,"broom","ACTION","sweep",4,"SingleNaming",1,7.2274446100689,"Younger","Single",1,0.5,-0.5,1376.7,"4SingleNamingACTION"
"1752",4,"coat","ACTION","wear",5,"SingleNaming",1,7.73377113261651,"Younger","Single",1,0.5,-0.5,2284.2,"4SingleNamingACTION"
"2026",4,"soap","ACTION","wash",6,"SingleNaming",1,7.03816931770407,"Younger","Single",1,0.5,-0.5,1139.3,"4SingleNamingACTION"
"2303",4,"toy","ACTION","play",7,"SingleNaming",1,7.00079014494933,"Younger","Single",1,0.5,-0.5,1097.5,"4SingleNamingACTION"
"2584",4,"cup","ACTION","drink",8,"SingleNaming",1,7.01714765575333,"Younger","Single",1,0.5,-0.5,1115.6,"4SingleNamingACTION"
"2856",4,"strawberry","ACTION","eat",9,"SingleNaming",1,6.73185307399037,"Younger","Single",1,0.5,-0.5,838.7,"4SingleNamingACTION"
"3113",4,"knife","ACTION","cut",10,"SingleNaming",1,6.81607849041023,"Younger","Single",1,0.5,-0.5,912.4,"4SingleNamingACTION"
"3375",4,"teeth","ACTION","brush",11,"SingleNaming",1,7.7320622922401,"Younger","Single",1,0.5,-0.5,2280.3,"4SingleNamingACTION"
"3643",4,"candle","ACTION","light",12,"SingleNaming",1,7.16819461504004,"Younger","Single",1,0.5,-0.5,1297.5,"4SingleNamingACTION"
"3913",4,"ladder","ACTION","climb",13,"SingleNaming",1,6.91899191090813,"Younger","Single",1,0.5,-0.5,1011.3,"4SingleNamingACTION"
"4195",4,"trophy","ACTION","win",14,"SingleNaming",1,7.10570409166179,"Younger","Single",1,0.5,-0.5,1218.9,"4SingleNamingACTION"
"4703",4,"newspaper","ACTION","read",16,"SingleNaming",1,6.90925415510587,"Younger","Single",1,0.5,-0.5,1001.5,"4SingleNamingACTION"
"4980",4,"present","ACTION","give",17,"SingleNaming",1,6.91899191090813,"Younger","Single",1,0.5,-0.5,1011.3,"4SingleNamingACTION"
"5259",4,"pen","ACTION","write",18,"SingleNaming",1,6.67127316322875,"Younger","Single",1,0.5,-0.5,789.4,"4SingleNamingACTION"
"5538",4,"suitcase","ACTION","pack",19,"SingleNaming",1,7.01391547481053,"Younger","Single",1,0.5,-0.5,1112,"4SingleNamingACTION"
"5811",4,"plane","ACTION","fly",20,"SingleNaming",1,6.583962319518,"Younger","Single",1,0.5,-0.5,723.4,"4SingleNamingACTION"
"6076",4,"cup","ACTION","drink",21,"SingleNaming",1,6.90465046402866,"Younger","Single",1,0.5,-0.5,996.9,"4SingleNamingACTION"
"6355",4,"broom","ACTION","sweep",22,"SingleNaming",1,6.67456139181443,"Younger","Single",1,0.5,-0.5,792,"4SingleNamingACTION"
"6628",4,"plane","ACTION","fly",23,"SingleNaming",1,6.85677772421727,"Younger","Single",1,0.5,-0.5,950.3,"4SingleNamingACTION"
"6909",4,"horse","ACTION","ride",24,"SingleNaming",1,6.83260060538138,"Younger","Single",1,0.5,-0.5,927.6,"4SingleNamingACTION"
"7473",4,"present","ACTION","give",26,"SingleNaming",1,7.60225154911138,"Younger","Single",1,0.5,-0.5,2002.7,"4SingleNamingACTION"
"7754",4,"newspaper","ACTION","read",27,"SingleNaming",1,7.15289512816824,"Younger","Single",1,0.5,-0.5,1277.8,"4SingleNamingACTION"
"8031",4,"suitcase","ACTION","pack",28,"SingleNaming",1,7.0423735807069,"Younger","Single",1,0.5,-0.5,1144.1,"4SingleNamingACTION"
"8302",4,"teeth","ACTION","brush",29,"SingleNaming",1,6.83754738393864,"Younger","Single",1,0.5,-0.5,932.2,"4SingleNamingACTION"
"8580",4,"coat","ACTION","wear",30,"SingleNaming",1,7.35154326140946,"Younger","Single",1,0.5,-0.5,1558.6,"4SingleNamingACTION"
"8855",4,"pen","ACTION","write",31,"SingleNaming",1,7.35263338944714,"Younger","Single",1,0.5,-0.5,1560.3,"4SingleNamingACTION"
"9130",4,"soap","ACTION","wash",32,"SingleNaming",1,7.20064874848445,"Younger","Single",1,0.5,-0.5,1340.3,"4SingleNamingACTION"
"9411",4,"brain","ACTION","think",33,"SingleNaming",1,7.26961674960817,"Younger","Single",1,0.5,-0.5,1436,"4SingleNamingACTION"
"9694",4,"knife","ACTION","cut",34,"SingleNaming",1,6.81289499795818,"Younger","Single",1,0.5,-0.5,909.5,"4SingleNamingACTION"
"9965",4,"candle","ACTION","light",35,"SingleNaming",1,6.81234509417748,"Younger","Single",1,0.5,-0.5,909,"4SingleNamingACTION"
"10248",4,"ladder","ACTION","climb",36,"SingleNaming",1,6.97101172861715,"Younger","Single",1,0.5,-0.5,1065.3,"4SingleNamingACTION"
"10529",4,"strawberry","ACTION","eat",37,"SingleNaming",1,6.67708346124714,"Younger","Single",1,0.5,-0.5,794,"4SingleNamingACTION"
"10818",4,"eye","ACTION","see",38,"SingleNaming",1,6.59002628517806,"Younger","Single",1,0.5,-0.5,727.8,"4SingleNamingACTION"
"11102",4,"trophy","ACTION","win",39,"SingleNaming",1,6.59167373200866,"Younger","Single",1,0.5,-0.5,729,"4SingleNamingACTION"
"11374",4,"toy","ACTION","play",40,"SingleNaming",1,6.74523634948436,"Younger","Single",1,0.5,-0.5,850,"4SingleNamingACTION"
"651",4,"broom","OBJECT","broom",1,"SingleNaming",1,7.42916469628777,"Younger","Single",1,-0.5,-0.5,1684.4,"4SingleNamingOBJECT"
"939",4,"ladder","OBJECT","ladder",2,"SingleNaming",1,6.9000254809202,"Younger","Single",1,-0.5,-0.5,992.3,"4SingleNamingOBJECT"
"1203",4,"coat","OBJECT","coat",3,"SingleNaming",1,7.3893168570616,"Younger","Single",1,-0.5,-0.5,1618.6,"4SingleNamingOBJECT"
"1476",4,"newspaper","OBJECT","newspaper",4,"SingleNaming",1,6.66364342123173,"Younger","Single",1,-0.5,-0.5,783.4,"4SingleNamingOBJECT"
"1751",4,"suitcase","OBJECT","suitcase",5,"SingleNaming",1,7.07918439460967,"Younger","Single",1,-0.5,-0.5,1187,"4SingleNamingOBJECT"
"2027",4,"plane","OBJECT","plane",6,"SingleNaming",1,7.17234782820889,"Younger","Single",1,-0.5,-0.5,1302.9,"4SingleNamingOBJECT"
"2302",4,"soap","OBJECT","soap",7,"SingleNaming",1,6.96847401401684,"Younger","Single",1,-0.5,-0.5,1062.6,"4SingleNamingOBJECT"
"2585",4,"eye","OBJECT","eye",8,"SingleNaming",1,7.50993782416799,"Younger","Single",1,-0.5,-0.5,1826.1,"4SingleNamingOBJECT"
"2857",4,"present","OBJECT","present",9,"SingleNaming",1,6.92961461333503,"Younger","Single",1,-0.5,-0.5,1022.1,"4SingleNamingOBJECT"
"3114",4,"trophy","OBJECT","trophy",10,"SingleNaming",1,7.26961674960817,"Younger","Single",1,-0.5,-0.5,1436,"4SingleNamingOBJECT"
"3644",4,"pen","OBJECT","pen",12,"SingleNaming",1,7.20615471477511,"Younger","Single",1,-0.5,-0.5,1347.7,"4SingleNamingOBJECT"
"3914",4,"toy","OBJECT","toy",13,"SingleNaming",1,6.92961461333503,"Younger","Single",1,-0.5,-0.5,1022.1,"4SingleNamingOBJECT"
"4194",4,"knife","OBJECT","knife",14,"SingleNaming",1,7.03474029073663,"Younger","Single",1,-0.5,-0.5,1135.4,"4SingleNamingOBJECT"
"4456",4,"cup","OBJECT","cup",15,"SingleNaming",1,6.88407715162756,"Younger","Single",1,-0.5,-0.5,976.6,"4SingleNamingOBJECT"
"4704",4,"horse","OBJECT","horse",16,"SingleNaming",1,6.92745986225647,"Younger","Single",1,-0.5,-0.5,1019.9,"4SingleNamingOBJECT"
"4979",4,"candle","OBJECT","candle",17,"SingleNaming",1,6.69863789940102,"Younger","Single",1,-0.5,-0.5,811.3,"4SingleNamingOBJECT"
"5258",4,"brain","OBJECT","brain",18,"SingleNaming",1,6.55421826373433,"Younger","Single",1,-0.5,-0.5,702.2,"4SingleNamingOBJECT"
"5537",4,"strawberry","OBJECT","strawberry",19,"SingleNaming",1,6.58327090000625,"Younger","Single",1,-0.5,-0.5,722.9,"4SingleNamingOBJECT"
"5812",4,"cake","OBJECT","cake",20,"SingleNaming",1,6.75890718224572,"Younger","Single",1,-0.5,-0.5,861.7,"4SingleNamingOBJECT"
"6075",4,"knife","OBJECT","knife",21,"SingleNaming",1,6.74875954749168,"Younger","Single",1,-0.5,-0.5,853,"4SingleNamingOBJECT"
"6356",4,"present","OBJECT","present",22,"SingleNaming",1,6.90825515402379,"Younger","Single",1,-0.5,-0.5,1000.5,"4SingleNamingOBJECT"
"6627",4,"horse","OBJECT","horse",23,"SingleNaming",1,6.72154617546099,"Younger","Single",1,-0.5,-0.5,830.1,"4SingleNamingOBJECT"
"6908",4,"teeth","OBJECT","teeth",24,"SingleNaming",1,6.50638178877723,"Younger","Single",1,-0.5,-0.5,669.4,"4SingleNamingOBJECT"
"7193",4,"newspaper","OBJECT","newspaper",25,"SingleNaming",1,6.6587809676334,"Younger","Single",1,-0.5,-0.5,779.6,"4SingleNamingOBJECT"
"7472",4,"candle","OBJECT","candle",26,"SingleNaming",1,6.50113950911658,"Younger","Single",1,-0.5,-0.5,665.9,"4SingleNamingOBJECT"
"7753",4,"brain","OBJECT","brain",27,"SingleNaming",1,6.8817192644313,"Younger","Single",1,-0.5,-0.5,974.3,"4SingleNamingOBJECT"
"8032",4,"plane","OBJECT","plane",28,"SingleNaming",1,7.41083094928807,"Younger","Single",1,-0.5,-0.5,1653.8,"4SingleNamingOBJECT"
"8301",4,"suitcase","OBJECT","suitcase",29,"SingleNaming",1,7.01544308439905,"Younger","Single",1,-0.5,-0.5,1113.7,"4SingleNamingOBJECT"
"8579",4,"trophy","OBJECT","trophy",30,"SingleNaming",1,6.66949808985788,"Younger","Single",1,-0.5,-0.5,788,"4SingleNamingOBJECT"
"8854",4,"pen","OBJECT","pen",31,"SingleNaming",1,6.93186235432537,"Younger","Single",1,-0.5,-0.5,1024.4,"4SingleNamingOBJECT"
"9129",4,"strawberry","OBJECT","strawberry",32,"SingleNaming",1,6.43390425800751,"Younger","Single",1,-0.5,-0.5,622.6,"4SingleNamingOBJECT"
"9410",4,"ladder","OBJECT","ladder",33,"SingleNaming",1,6.4606866210189,"Younger","Single",1,-0.5,-0.5,639.5,"4SingleNamingOBJECT"
"9693",4,"cake","OBJECT","cake",34,"SingleNaming",1,6.59085034785345,"Younger","Single",1,-0.5,-0.5,728.4,"4SingleNamingOBJECT"
"9964",4,"coat","OBJECT","coat",35,"SingleNaming",1,6.8095910301949,"Younger","Single",1,-0.5,-0.5,906.5,"4SingleNamingOBJECT"
"10247",4,"toy","OBJECT","toy",36,"SingleNaming",1,6.73411592257102,"Younger","Single",1,-0.5,-0.5,840.6,"4SingleNamingOBJECT"
"10530",4,"broom","OBJECT","broom",37,"SingleNaming",1,6.71780469502369,"Younger","Single",1,-0.5,-0.5,827,"4SingleNamingOBJECT"
"10817",4,"eye","OBJECT","eye",38,"SingleNaming",1,6.53915233560654,"Younger","Single",1,-0.5,-0.5,691.7,"4SingleNamingOBJECT"
"11101",4,"soap","OBJECT","soap",39,"SingleNaming",1,6.45110213410454,"Younger","Single",1,-0.5,-0.5,633.4,"4SingleNamingOBJECT"
"11375",4,"cup","OBJECT","cup",40,"SingleNaming",1,6.94966468205935,"Younger","Single",1,-0.5,-0.5,1042.8,"4SingleNamingOBJECT"
"652",5,"broom","OBJECT","broom",1,"SingleNaming",1,7.26466019647492,"Younger","Single",1,-0.5,-0.5,1428.9,"5SingleNamingOBJECT"
"1206",5,"coat","OBJECT","coat",3,"SingleNaming",1,7.60906902220848,"Younger","Single",1,-0.5,-0.5,2016.4,"5SingleNamingOBJECT"
"1479",5,"newspaper","OBJECT","newspaper",4,"SingleNaming",1,7.64266800877455,"Younger","Single",1,-0.5,-0.5,2085.3,"5SingleNamingOBJECT"
"2028",5,"plane","OBJECT","plane",6,"SingleNaming",1,7.27980147754486,"Younger","Single",1,-0.5,-0.5,1450.7,"5SingleNamingOBJECT"
"2304",5,"soap","OBJECT","soap",7,"SingleNaming",1,7.4079243225596,"Younger","Single",1,-0.5,-0.5,1649,"5SingleNamingOBJECT"
"2586",5,"eye","OBJECT","eye",8,"SingleNaming",1,7.46002990066067,"Younger","Single",1,-0.5,-0.5,1737.2,"5SingleNamingOBJECT"
"3116",5,"trophy","OBJECT","trophy",10,"SingleNaming",1,7.92555511935795,"Younger","Single",1,-0.5,-0.5,2767.1,"5SingleNamingOBJECT"
"3646",5,"pen","OBJECT","pen",12,"SingleNaming",1,7.92425327127332,"Younger","Single",1,-0.5,-0.5,2763.5,"5SingleNamingOBJECT"
"3915",5,"toy","OBJECT","toy",13,"SingleNaming",1,6.91025215918072,"Younger","Single",1,-0.5,-0.5,1002.5,"5SingleNamingOBJECT"
"4196",5,"knife","OBJECT","knife",14,"SingleNaming",1,7.58171964012531,"Younger","Single",1,-0.5,-0.5,1962,"5SingleNamingOBJECT"
"4458",5,"cup","OBJECT","cup",15,"SingleNaming",1,7.85775154332146,"Younger","Single",1,-0.5,-0.5,2585.7,"5SingleNamingOBJECT"
"4705",5,"horse","OBJECT","horse",16,"SingleNaming",1,7.15383380157884,"Younger","Single",1,-0.5,-0.5,1279,"5SingleNamingOBJECT"
"4981",5,"candle","OBJECT","candle",17,"SingleNaming",1,6.94080313302834,"Younger","Single",1,-0.5,-0.5,1033.6,"5SingleNamingOBJECT"
"5260",5,"brain","OBJECT","brain",18,"SingleNaming",1,7.48273810119144,"Younger","Single",1,-0.5,-0.5,1777.1,"5SingleNamingOBJECT"
"5539",5,"strawberry","OBJECT","strawberry",19,"SingleNaming",1,7.95145369177279,"Younger","Single",1,-0.5,-0.5,2839.7,"5SingleNamingOBJECT"
"5814",5,"cake","OBJECT","cake",20,"SingleNaming",1,7.64530204683877,"Younger","Single",1,-0.5,-0.5,2090.8,"5SingleNamingOBJECT"
"6078",5,"knife","OBJECT","knife",21,"SingleNaming",1,7.95398596196849,"Younger","Single",1,-0.5,-0.5,2846.9,"5SingleNamingOBJECT"
"6358",5,"present","OBJECT","present",22,"SingleNaming",1,7.35672677539944,"Younger","Single",1,-0.5,-0.5,1566.7,"5SingleNamingOBJECT"
"6630",5,"horse","OBJECT","horse",23,"SingleNaming",1,6.90505162740782,"Younger","Single",1,-0.5,-0.5,997.3,"5SingleNamingOBJECT"
"6911",5,"teeth","OBJECT","teeth",24,"SingleNaming",1,7.89290020606147,"Younger","Single",1,-0.5,-0.5,2678.2,"5SingleNamingOBJECT"
"7474",5,"candle","OBJECT","candle",26,"SingleNaming",1,7.417340133312,"Younger","Single",1,-0.5,-0.5,1664.6,"5SingleNamingOBJECT"
"7756",5,"brain","OBJECT","brain",27,"SingleNaming",1,7.5108683368381,"Younger","Single",1,-0.5,-0.5,1827.8,"5SingleNamingOBJECT"
"8033",5,"plane","OBJECT","plane",28,"SingleNaming",1,7.72125995620582,"Younger","Single",1,-0.5,-0.5,2255.8,"5SingleNamingOBJECT"
"8857",5,"pen","OBJECT","pen",31,"SingleNaming",1,7.65477492500657,"Younger","Single",1,-0.5,-0.5,2110.7,"5SingleNamingOBJECT"
"9131",5,"strawberry","OBJECT","strawberry",32,"SingleNaming",1,7.43679403216749,"Younger","Single",1,-0.5,-0.5,1697.3,"5SingleNamingOBJECT"
"9413",5,"ladder","OBJECT","ladder",33,"SingleNaming",1,7.49487505489655,"Younger","Single",1,-0.5,-0.5,1798.8,"5SingleNamingOBJECT"
"9696",5,"cake","OBJECT","cake",34,"SingleNaming",1,7.75443866490428,"Younger","Single",1,-0.5,-0.5,2331.9,"5SingleNamingOBJECT"
"9966",5,"coat","OBJECT","coat",35,"SingleNaming",1,7.14740190239536,"Younger","Single",1,-0.5,-0.5,1270.8,"5SingleNamingOBJECT"
"10249",5,"toy","OBJECT","toy",36,"SingleNaming",1,7.60678512270024,"Younger","Single",1,-0.5,-0.5,2011.8,"5SingleNamingOBJECT"
"10532",5,"broom","OBJECT","broom",37,"SingleNaming",1,7.3093462255417,"Younger","Single",1,-0.5,-0.5,1494.2,"5SingleNamingOBJECT"
"10820",5,"eye","OBJECT","eye",38,"SingleNaming",1,7.90569972784949,"Younger","Single",1,-0.5,-0.5,2712.7,"5SingleNamingOBJECT"
"11377",5,"cup","OBJECT","cup",40,"SingleNaming",1,7.75503885355301,"Younger","Single",1,-0.5,-0.5,2333.3,"5SingleNamingOBJECT"
"653",5,"brain","ACTION","think",1,"SingleNaming",1,7.76988545189686,"Younger","Single",1,0.5,-0.5,2368.2,"5SingleNamingACTION"
"1205",5,"eye","ACTION","see",3,"SingleNaming",1,6.52444297551511,"Younger","Single",1,0.5,-0.5,681.6,"5SingleNamingACTION"
"1754",5,"coat","ACTION","wear",5,"SingleNaming",1,7.83344173249665,"Younger","Single",1,0.5,-0.5,2523.6,"5SingleNamingACTION"
"2305",5,"toy","ACTION","play",7,"SingleNaming",1,7.93869525241638,"Younger","Single",1,0.5,-0.5,2803.7,"5SingleNamingACTION"
"2587",5,"cup","ACTION","drink",8,"SingleNaming",1,7.54269054979367,"Younger","Single",1,0.5,-0.5,1886.9,"5SingleNamingACTION"
"2858",5,"strawberry","ACTION","eat",9,"SingleNaming",1,7.56070526979067,"Younger","Single",1,0.5,-0.5,1921.2,"5SingleNamingACTION"
"3115",5,"knife","ACTION","cut",10,"SingleNaming",1,7.86276659896789,"Younger","Single",1,0.5,-0.5,2598.7,"5SingleNamingACTION"
"3645",5,"candle","ACTION","light",12,"SingleNaming",1,7.74517594869851,"Younger","Single",1,0.5,-0.5,2310.4,"5SingleNamingACTION"
"3916",5,"ladder","ACTION","climb",13,"SingleNaming",1,7.77414122572765,"Younger","Single",1,0.5,-0.5,2378.3,"5SingleNamingACTION"
"4197",5,"trophy","ACTION","win",14,"SingleNaming",1,7.94739574587368,"Younger","Single",1,0.5,-0.5,2828.2,"5SingleNamingACTION"
"4457",5,"cake","ACTION","bake",15,"SingleNaming",1,7.67275789664251,"Younger","Single",1,0.5,-0.5,2149,"5SingleNamingACTION"
"4706",5,"newspaper","ACTION","read",16,"SingleNaming",1,7.63920929369667,"Younger","Single",1,0.5,-0.5,2078.1,"5SingleNamingACTION"
"5261",5,"pen","ACTION","write",18,"SingleNaming",1,7.88544209972137,"Younger","Single",1,0.5,-0.5,2658.3,"5SingleNamingACTION"
"5813",5,"plane","ACTION","fly",20,"SingleNaming",1,7.20184179910691,"Younger","Single",1,0.5,-0.5,1341.9,"5SingleNamingACTION"
"6077",5,"cup","ACTION","drink",21,"SingleNaming",1,7.84936281884008,"Younger","Single",1,0.5,-0.5,2564.1,"5SingleNamingACTION"
"6357",5,"broom","ACTION","sweep",22,"SingleNaming",1,7.17165682276851,"Younger","Single",1,0.5,-0.5,1302,"5SingleNamingACTION"
"6629",5,"plane","ACTION","fly",23,"SingleNaming",1,6.64496092203813,"Younger","Single",1,0.5,-0.5,768.9,"5SingleNamingACTION"
"6910",5,"horse","ACTION","ride",24,"SingleNaming",1,7.1433806077984,"Younger","Single",1,0.5,-0.5,1265.7,"5SingleNamingACTION"
"7194",5,"cake","ACTION","bake",25,"SingleNaming",1,7.78359894604111,"Younger","Single",1,0.5,-0.5,2400.9,"5SingleNamingACTION"
"7755",5,"newspaper","ACTION","read",27,"SingleNaming",1,7.20452097016696,"Younger","Single",1,0.5,-0.5,1345.5,"5SingleNamingACTION"
"8303",5,"teeth","ACTION","brush",29,"SingleNaming",1,7.40859117111876,"Younger","Single",1,0.5,-0.5,1650.1,"5SingleNamingACTION"
"8581",5,"coat","ACTION","wear",30,"SingleNaming",1,7.53636393840451,"Younger","Single",1,0.5,-0.5,1875,"5SingleNamingACTION"
"8856",5,"pen","ACTION","write",31,"SingleNaming",1,7.38411367386588,"Younger","Single",1,0.5,-0.5,1610.2,"5SingleNamingACTION"
"9412",5,"brain","ACTION","think",33,"SingleNaming",1,7.03773035540388,"Younger","Single",1,0.5,-0.5,1138.8,"5SingleNamingACTION"
"9695",5,"knife","ACTION","cut",34,"SingleNaming",1,7.66336069338169,"Younger","Single",1,0.5,-0.5,2128.9,"5SingleNamingACTION"
"9967",5,"candle","ACTION","light",35,"SingleNaming",1,7.60364868521011,"Younger","Single",1,0.5,-0.5,2005.5,"5SingleNamingACTION"
"10250",5,"ladder","ACTION","climb",36,"SingleNaming",1,7.85356597739228,"Younger","Single",1,0.5,-0.5,2574.9,"5SingleNamingACTION"
"10531",5,"strawberry","ACTION","eat",37,"SingleNaming",1,7.12020182074801,"Younger","Single",1,0.5,-0.5,1236.7,"5SingleNamingACTION"
"10819",5,"eye","ACTION","see",38,"SingleNaming",1,6.9987835773297,"Younger","Single",1,0.5,-0.5,1095.3,"5SingleNamingACTION"
"11103",5,"trophy","ACTION","win",39,"SingleNaming",1,7.45876269238096,"Younger","Single",1,0.5,-0.5,1735,"5SingleNamingACTION"
"11376",5,"toy","ACTION","play",40,"SingleNaming",1,6.85414350953349,"Younger","Single",1,0.5,-0.5,947.8,"5SingleNamingACTION"
"654",6,"broom","OBJECT","broom",1,"SingleNaming",1,6.75565250077218,"Younger","Single",1,-0.5,-0.5,858.9,"6SingleNamingOBJECT"
"1207",6,"suitcase","OBJECT","suitcase",3,"SingleNaming",1,6.75646716476836,"Younger","Single",1,-0.5,-0.5,859.6,"6SingleNamingOBJECT"
"1755",6,"soap","OBJECT","soap",5,"SingleNaming",1,6.66771985999771,"Younger","Single",1,-0.5,-0.5,786.6,"6SingleNamingOBJECT"
"2029",6,"pen","OBJECT","pen",6,"SingleNaming",1,6.67000557527856,"Younger","Single",1,-0.5,-0.5,788.4,"6SingleNamingOBJECT"
"2307",6,"newspaper","OBJECT","newspaper",7,"SingleNaming",1,7.12133322542665,"Younger","Single",1,-0.5,-0.5,1238.1,"6SingleNamingOBJECT"
"2588",6,"cup","OBJECT","cup",8,"SingleNaming",1,6.8417223083777,"Younger","Single",1,-0.5,-0.5,936.1,"6SingleNamingOBJECT"
"2859",6,"knife","OBJECT","knife",9,"SingleNaming",1,6.6997466152522,"Younger","Single",1,-0.5,-0.5,812.2,"6SingleNamingOBJECT"
"3118",6,"coat","OBJECT","coat",10,"SingleNaming",1,6.94428005366451,"Younger","Single",1,-0.5,-0.5,1037.2,"6SingleNamingOBJECT"
"3376",6,"strawberry","OBJECT","strawberry",11,"SingleNaming",1,6.87523208727658,"Younger","Single",1,-0.5,-0.5,968,"6SingleNamingOBJECT"
"3647",6,"trophy","OBJECT","trophy",12,"SingleNaming",1,6.77399528880261,"Younger","Single",1,-0.5,-0.5,874.8,"6SingleNamingOBJECT"
"3917",6,"eye","OBJECT","eye",13,"SingleNaming",1,6.72419295275205,"Younger","Single",1,-0.5,-0.5,832.3,"6SingleNamingOBJECT"
"4198",6,"cake","OBJECT","cake",14,"SingleNaming",1,6.86013942504047,"Younger","Single",1,-0.5,-0.5,953.5,"6SingleNamingOBJECT"
"4460",6,"teeth","OBJECT","teeth",15,"SingleNaming",1,7.21582804108165,"Younger","Single",1,-0.5,-0.5,1360.8,"6SingleNamingOBJECT"
"4708",6,"present","OBJECT","present",16,"SingleNaming",1,6.7929054373032,"Younger","Single",1,-0.5,-0.5,891.5,"6SingleNamingOBJECT"
"4982",6,"brain","OBJECT","brain",17,"SingleNaming",1,6.77433816554179,"Younger","Single",1,-0.5,-0.5,875.1,"6SingleNamingOBJECT"
"5540",6,"ladder","OBJECT","ladder",19,"SingleNaming",1,6.77730484959807,"Younger","Single",1,-0.5,-0.5,877.7,"6SingleNamingOBJECT"
"5815",6,"plane","OBJECT","plane",20,"SingleNaming",1,6.71404916332154,"Younger","Single",1,-0.5,-0.5,823.9,"6SingleNamingOBJECT"
"6080",6,"teeth","OBJECT","teeth",21,"SingleNaming",1,6.88305266634177,"Younger","Single",1,-0.5,-0.5,975.6,"6SingleNamingOBJECT"
"6359",6,"coat","OBJECT","coat",22,"SingleNaming",1,6.50862009456884,"Younger","Single",1,-0.5,-0.5,670.9,"6SingleNamingOBJECT"
"6631",6,"cake","OBJECT","cake",23,"SingleNaming",1,6.65942211659427,"Younger","Single",1,-0.5,-0.5,780.1,"6SingleNamingOBJECT"
"6913",6,"toy","OBJECT","toy",24,"SingleNaming",1,7.10134642803432,"Younger","Single",1,-0.5,-0.5,1213.6,"6SingleNamingOBJECT"
"7195",6,"strawberry","OBJECT","strawberry",25,"SingleNaming",1,6.6351588439484,"Younger","Single",1,-0.5,-0.5,761.4,"6SingleNamingOBJECT"
"7475",6,"plane","OBJECT","plane",26,"SingleNaming",1,6.92313638102044,"Younger","Single",1,-0.5,-0.5,1015.5,"6SingleNamingOBJECT"
"7757",6,"knife","OBJECT","knife",27,"SingleNaming",1,6.77753269193216,"Younger","Single",1,-0.5,-0.5,877.9,"6SingleNamingOBJECT"
"8034",6,"suitcase","OBJECT","suitcase",28,"SingleNaming",1,6.61660051705138,"Younger","Single",1,-0.5,-0.5,747.4,"6SingleNamingOBJECT"
"8305",6,"trophy","OBJECT","trophy",29,"SingleNaming",1,6.97793411360338,"Younger","Single",1,-0.5,-0.5,1072.7,"6SingleNamingOBJECT"
"8583",6,"ladder","OBJECT","ladder",30,"SingleNaming",1,7.02063743603881,"Younger","Single",1,-0.5,-0.5,1119.5,"6SingleNamingOBJECT"
"8858",6,"eye","OBJECT","eye",31,"SingleNaming",1,6.87708986467125,"Younger","Single",1,-0.5,-0.5,969.8,"6SingleNamingOBJECT"
"9132",6,"newspaper","OBJECT","newspaper",32,"SingleNaming",1,6.94485836693364,"Younger","Single",1,-0.5,-0.5,1037.8,"6SingleNamingOBJECT"
"9414",6,"candle","OBJECT","candle",33,"SingleNaming",1,6.7854746442733,"Younger","Single",1,-0.5,-0.5,884.9,"6SingleNamingOBJECT"
"9697",6,"present","OBJECT","present",34,"SingleNaming",1,6.98979598931835,"Younger","Single",1,-0.5,-0.5,1085.5,"6SingleNamingOBJECT"
"9968",6,"horse","OBJECT","horse",35,"SingleNaming",1,6.90384765415112,"Younger","Single",1,-0.5,-0.5,996.1,"6SingleNamingOBJECT"
"10251",6,"brain","OBJECT","brain",36,"SingleNaming",1,6.95234616231001,"Younger","Single",1,-0.5,-0.5,1045.6,"6SingleNamingOBJECT"
"10533",6,"cup","OBJECT","cup",37,"SingleNaming",1,6.79760553548115,"Younger","Single",1,-0.5,-0.5,895.7,"6SingleNamingOBJECT"
"10821",6,"pen","OBJECT","pen",38,"SingleNaming",1,6.79570577517351,"Younger","Single",1,-0.5,-0.5,894,"6SingleNamingOBJECT"
"11104",6,"soap","OBJECT","soap",39,"SingleNaming",1,6.70060810075253,"Younger","Single",1,-0.5,-0.5,812.9,"6SingleNamingOBJECT"
"11379",6,"broom","OBJECT","broom",40,"SingleNaming",1,7.03623644063068,"Younger","Single",1,-0.5,-0.5,1137.1,"6SingleNamingOBJECT"
"655",6,"teeth","ACTION","brush",1,"SingleNaming",1,7.50692139607119,"Younger","Single",1,0.5,-0.5,1820.6,"6SingleNamingACTION"
"941",6,"strawberry","ACTION","eat",2,"SingleNaming",1,7.29492062991887,"Younger","Single",1,0.5,-0.5,1472.8,"6SingleNamingACTION"
"1208",6,"cup","ACTION","drink",3,"SingleNaming",1,7.36137542897735,"Younger","Single",1,0.5,-0.5,1574,"6SingleNamingACTION"
"1480",6,"broom","ACTION","sweep",4,"SingleNaming",1,7.33537319173143,"Younger","Single",1,0.5,-0.5,1533.6,"6SingleNamingACTION"
"1756",6,"eye","ACTION","see",5,"SingleNaming",1,7.04446910229796,"Younger","Single",1,0.5,-0.5,1146.5,"6SingleNamingACTION"
"2030",6,"present","ACTION","give",6,"SingleNaming",1,7.19638690046951,"Younger","Single",1,0.5,-0.5,1334.6,"6SingleNamingACTION"
"2306",6,"suitcase","ACTION","pack",7,"SingleNaming",1,6.95253742175403,"Younger","Single",1,0.5,-0.5,1045.8,"6SingleNamingACTION"
"2589",6,"candle","ACTION","light",8,"SingleNaming",1,7.02926469637933,"Younger","Single",1,0.5,-0.5,1129.2,"6SingleNamingACTION"
"2860",6,"pen","ACTION","write",9,"SingleNaming",1,6.84279000012978,"Younger","Single",1,0.5,-0.5,937.1,"6SingleNamingACTION"
"3117",6,"toy","ACTION","play",10,"SingleNaming",1,6.9071550989101,"Younger","Single",1,0.5,-0.5,999.4,"6SingleNamingACTION"
"3377",6,"horse","ACTION","ride",11,"SingleNaming",1,7.15007380968239,"Younger","Single",1,0.5,-0.5,1274.2,"6SingleNamingACTION"
"3648",6,"coat","ACTION","wear",12,"SingleNaming",1,6.92667516383465,"Younger","Single",1,0.5,-0.5,1019.1,"6SingleNamingACTION"
"3918",6,"plane","ACTION","fly",13,"SingleNaming",1,6.98675128520864,"Younger","Single",1,0.5,-0.5,1082.2,"6SingleNamingACTION"
"4199",6,"cake","ACTION","bake",14,"SingleNaming",1,7.22475340576797,"Younger","Single",1,0.5,-0.5,1373,"6SingleNamingACTION"
"4459",6,"ladder","ACTION","climb",15,"SingleNaming",1,7.04228617193974,"Younger","Single",1,0.5,-0.5,1144,"6SingleNamingACTION"
"4707",6,"knife","ACTION","cut",16,"SingleNaming",1,6.75343791859778,"Younger","Single",1,0.5,-0.5,857,"6SingleNamingACTION"
"4983",6,"soap","ACTION","wash",17,"SingleNaming",1,6.84513491700047,"Younger","Single",1,0.5,-0.5,939.3,"6SingleNamingACTION"
"5262",6,"newspaper","ACTION","read",18,"SingleNaming",1,7.1644883332899,"Younger","Single",1,0.5,-0.5,1292.7,"6SingleNamingACTION"
"5541",6,"brain","ACTION","think",19,"SingleNaming",1,6.93449457617176,"Younger","Single",1,0.5,-0.5,1027.1,"6SingleNamingACTION"
"5816",6,"trophy","ACTION","win",20,"SingleNaming",1,7.1124089409825,"Younger","Single",1,0.5,-0.5,1227.1,"6SingleNamingACTION"
"6079",6,"knife","ACTION","cut",21,"SingleNaming",1,6.73933662735717,"Younger","Single",1,0.5,-0.5,845,"6SingleNamingACTION"
"6360",6,"strawberry","ACTION","eat",22,"SingleNaming",1,7.51168865899725,"Younger","Single",1,0.5,-0.5,1829.3,"6SingleNamingACTION"
"6632",6,"cup","ACTION","drink",23,"SingleNaming",1,7.31088432729275,"Younger","Single",1,0.5,-0.5,1496.5,"6SingleNamingACTION"
"6912",6,"brain","ACTION","think",24,"SingleNaming",1,7.03667605904898,"Younger","Single",1,0.5,-0.5,1137.6,"6SingleNamingACTION"
"7196",6,"eye","ACTION","see",25,"SingleNaming",1,7.2795257105662,"Younger","Single",1,0.5,-0.5,1450.3,"6SingleNamingACTION"
"7476",6,"ladder","ACTION","climb",26,"SingleNaming",1,7.33374171031105,"Younger","Single",1,0.5,-0.5,1531.1,"6SingleNamingACTION"
"7758",6,"suitcase","ACTION","pack",27,"SingleNaming",1,7.33953769540767,"Younger","Single",1,0.5,-0.5,1540,"6SingleNamingACTION"
"8035",6,"teeth","ACTION","brush",28,"SingleNaming",1,7.69188510725395,"Younger","Single",1,0.5,-0.5,2190.5,"6SingleNamingACTION"
"8304",6,"pen","ACTION","write",29,"SingleNaming",1,6.94697599213542,"Younger","Single",1,0.5,-0.5,1040,"6SingleNamingACTION"
"8582",6,"toy","ACTION","play",30,"SingleNaming",1,6.90274273715859,"Younger","Single",1,0.5,-0.5,995,"6SingleNamingACTION"
"8859",6,"horse","ACTION","ride",31,"SingleNaming",1,7.1520339028263,"Younger","Single",1,0.5,-0.5,1276.7,"6SingleNamingACTION"
"9133",6,"coat","ACTION","wear",32,"SingleNaming",1,7.68478394352278,"Younger","Single",1,0.5,-0.5,2175,"6SingleNamingACTION"
"9415",6,"plane","ACTION","fly",33,"SingleNaming",1,7.3930784623357,"Younger","Single",1,0.5,-0.5,1624.7,"6SingleNamingACTION"
"9698",6,"cake","ACTION","bake",34,"SingleNaming",1,7.31906991187919,"Younger","Single",1,0.5,-0.5,1508.8,"6SingleNamingACTION"
"9969",6,"candle","ACTION","light",35,"SingleNaming",1,7.60414718970697,"Younger","Single",1,0.5,-0.5,2006.5,"6SingleNamingACTION"
"10252",6,"broom","ACTION","sweep",36,"SingleNaming",1,7.4118583569873,"Younger","Single",1,0.5,-0.5,1655.5,"6SingleNamingACTION"
"10534",6,"soap","ACTION","wash",37,"SingleNaming",1,7.39449310721904,"Younger","Single",1,0.5,-0.5,1627,"6SingleNamingACTION"
"10822",6,"newspaper","ACTION","read",38,"SingleNaming",1,7.09041011356621,"Younger","Single",1,0.5,-0.5,1200.4,"6SingleNamingACTION"
"11105",6,"present","ACTION","give",39,"SingleNaming",1,7.10060455766275,"Younger","Single",1,0.5,-0.5,1212.7,"6SingleNamingACTION"
"11378",6,"trophy","ACTION","win",40,"SingleNaming",1,7.01669936597132,"Younger","Single",1,0.5,-0.5,1115.1,"6SingleNamingACTION"
"656",7,"broom","OBJECT","broom",1,"SingleNaming",1,7.09298925722313,"Younger","Single",1,-0.5,-0.5,1203.5,"7SingleNamingOBJECT"
"942",7,"ladder","OBJECT","ladder",2,"SingleNaming",1,6.70637321944944,"Younger","Single",1,-0.5,-0.5,817.6,"7SingleNamingOBJECT"
"1209",7,"coat","OBJECT","coat",3,"SingleNaming",1,6.84161547647759,"Younger","Single",1,-0.5,-0.5,936,"7SingleNamingOBJECT"
"1483",7,"newspaper","OBJECT","newspaper",4,"SingleNaming",1,7.75696559517367,"Younger","Single",1,-0.5,-0.5,2337.8,"7SingleNamingOBJECT"
"1757",7,"suitcase","OBJECT","suitcase",5,"SingleNaming",1,6.7854746442733,"Younger","Single",1,-0.5,-0.5,884.9,"7SingleNamingOBJECT"
"2031",7,"plane","OBJECT","plane",6,"SingleNaming",1,6.73197229902777,"Younger","Single",1,-0.5,-0.5,838.8,"7SingleNamingOBJECT"
"2308",7,"soap","OBJECT","soap",7,"SingleNaming",1,6.8031722387897,"Younger","Single",1,-0.5,-0.5,900.7,"7SingleNamingOBJECT"
"2590",7,"eye","OBJECT","eye",8,"SingleNaming",1,7.12246335147525,"Younger","Single",1,-0.5,-0.5,1239.5,"7SingleNamingOBJECT"
"2862",7,"present","OBJECT","present",9,"SingleNaming",1,7.6358351460821,"Younger","Single",1,-0.5,-0.5,2071.1,"7SingleNamingOBJECT"
"3120",7,"trophy","OBJECT","trophy",10,"SingleNaming",1,7.56496435273645,"Younger","Single",1,-0.5,-0.5,1929.4,"7SingleNamingOBJECT"
"3649",7,"pen","OBJECT","pen",12,"SingleNaming",1,7.09315542538569,"Younger","Single",1,-0.5,-0.5,1203.7,"7SingleNamingOBJECT"
"3919",7,"toy","OBJECT","toy",13,"SingleNaming",1,6.69046953715209,"Younger","Single",1,-0.5,-0.5,804.7,"7SingleNamingOBJECT"
"4200",7,"knife","OBJECT","knife",14,"SingleNaming",1,6.99209642741589,"Younger","Single",1,-0.5,-0.5,1088,"7SingleNamingOBJECT"
"4461",7,"cup","OBJECT","cup",15,"SingleNaming",1,7.2258453076053,"Younger","Single",1,-0.5,-0.5,1374.5,"7SingleNamingOBJECT"
"4710",7,"horse","OBJECT","horse",16,"SingleNaming",1,7.29783598504655,"Younger","Single",1,-0.5,-0.5,1477.1,"7SingleNamingOBJECT"
"4984",7,"candle","OBJECT","candle",17,"SingleNaming",1,7.08740660722021,"Younger","Single",1,-0.5,-0.5,1196.8,"7SingleNamingOBJECT"
"5264",7,"brain","OBJECT","brain",18,"SingleNaming",1,6.78536163076807,"Younger","Single",1,-0.5,-0.5,884.8,"7SingleNamingOBJECT"
"5542",7,"strawberry","OBJECT","strawberry",19,"SingleNaming",1,7.2653597907388,"Younger","Single",1,-0.5,-0.5,1429.9,"7SingleNamingOBJECT"
"5817",7,"cake","OBJECT","cake",20,"SingleNaming",1,6.79043463640559,"Younger","Single",1,-0.5,-0.5,889.3,"7SingleNamingOBJECT"
"6081",7,"knife","OBJECT","knife",21,"SingleNaming",1,6.85372139048965,"Younger","Single",1,-0.5,-0.5,947.4,"7SingleNamingOBJECT"
"6362",7,"present","OBJECT","present",22,"SingleNaming",1,7.24158115994815,"Younger","Single",1,-0.5,-0.5,1396.3,"7SingleNamingOBJECT"
"6634",7,"horse","OBJECT","horse",23,"SingleNaming",1,7.37875840856096,"Younger","Single",1,-0.5,-0.5,1601.6,"7SingleNamingOBJECT"
"6914",7,"teeth","OBJECT","teeth",24,"SingleNaming",1,6.78377809916243,"Younger","Single",1,-0.5,-0.5,883.4,"7SingleNamingOBJECT"
"7198",7,"newspaper","OBJECT","newspaper",25,"SingleNaming",1,7.3412245834999,"Younger","Single",1,-0.5,-0.5,1542.6,"7SingleNamingOBJECT"
"7478",7,"candle","OBJECT","candle",26,"SingleNaming",1,6.87337085212031,"Younger","Single",1,-0.5,-0.5,966.2,"7SingleNamingOBJECT"
"7759",7,"brain","OBJECT","brain",27,"SingleNaming",1,6.68798104513753,"Younger","Single",1,-0.5,-0.5,802.7,"7SingleNamingOBJECT"
"8036",7,"plane","OBJECT","plane",28,"SingleNaming",1,6.81947036411457,"Younger","Single",1,-0.5,-0.5,915.5,"7SingleNamingOBJECT"
"8306",7,"suitcase","OBJECT","suitcase",29,"SingleNaming",1,7.13401397319649,"Younger","Single",1,-0.5,-0.5,1253.9,"7SingleNamingOBJECT"
"8584",7,"trophy","OBJECT","trophy",30,"SingleNaming",1,6.95244179660454,"Younger","Single",1,-0.5,-0.5,1045.7,"7SingleNamingOBJECT"
"8861",7,"pen","OBJECT","pen",31,"SingleNaming",1,7.31634882176483,"Younger","Single",1,-0.5,-0.5,1504.7,"7SingleNamingOBJECT"
"9134",7,"strawberry","OBJECT","strawberry",32,"SingleNaming",1,6.92431736728112,"Younger","Single",1,-0.5,-0.5,1016.7,"7SingleNamingOBJECT"
"9417",7,"ladder","OBJECT","ladder",33,"SingleNaming",1,7.28344822875663,"Younger","Single",1,-0.5,-0.5,1456,"7SingleNamingOBJECT"
"9700",7,"cake","OBJECT","cake",34,"SingleNaming",1,7.38572707787705,"Younger","Single",1,-0.5,-0.5,1612.8,"7SingleNamingOBJECT"
"9971",7,"coat","OBJECT","coat",35,"SingleNaming",1,7.12544397961338,"Younger","Single",1,-0.5,-0.5,1243.2,"7SingleNamingOBJECT"
"10253",7,"toy","OBJECT","toy",36,"SingleNaming",1,6.71088845074615,"Younger","Single",1,-0.5,-0.5,821.3,"7SingleNamingOBJECT"
"10536",7,"broom","OBJECT","broom",37,"SingleNaming",1,7.0827164813698,"Younger","Single",1,-0.5,-0.5,1191.2,"7SingleNamingOBJECT"
"10823",7,"eye","OBJECT","eye",38,"SingleNaming",1,6.93410505430492,"Younger","Single",1,-0.5,-0.5,1026.7,"7SingleNamingOBJECT"
"11106",7,"soap","OBJECT","soap",39,"SingleNaming",1,6.92647889298024,"Younger","Single",1,-0.5,-0.5,1018.9,"7SingleNamingOBJECT"
"11381",7,"cup","OBJECT","cup",40,"SingleNaming",1,7.16340474185261,"Younger","Single",1,-0.5,-0.5,1291.3,"7SingleNamingOBJECT"
"657",7,"brain","ACTION","think",1,"SingleNaming",1,7.38640888904178,"Younger","Single",1,0.5,-0.5,1613.9,"7SingleNamingACTION"
"943",7,"horse","ACTION","ride",2,"SingleNaming",1,6.88540741531823,"Younger","Single",1,0.5,-0.5,977.9,"7SingleNamingACTION"
"1210",7,"eye","ACTION","see",3,"SingleNaming",1,6.90945383561772,"Younger","Single",1,0.5,-0.5,1001.7,"7SingleNamingACTION"
"1482",7,"broom","ACTION","sweep",4,"SingleNaming",1,6.97447891102505,"Younger","Single",1,0.5,-0.5,1069,"7SingleNamingACTION"
"1758",7,"coat","ACTION","wear",5,"SingleNaming",1,7.6274470147642,"Younger","Single",1,0.5,-0.5,2053.8,"7SingleNamingACTION"
"2032",7,"soap","ACTION","wash",6,"SingleNaming",1,7.38206213604771,"Younger","Single",1,0.5,-0.5,1606.9,"7SingleNamingACTION"
"2309",7,"toy","ACTION","play",7,"SingleNaming",1,7.15656657704492,"Younger","Single",1,0.5,-0.5,1282.5,"7SingleNamingACTION"
"2591",7,"cup","ACTION","drink",8,"SingleNaming",1,7.14148262383599,"Younger","Single",1,0.5,-0.5,1263.3,"7SingleNamingACTION"
"2861",7,"strawberry","ACTION","eat",9,"SingleNaming",1,7.58187253363528,"Younger","Single",1,0.5,-0.5,1962.3,"7SingleNamingACTION"
"3119",7,"knife","ACTION","cut",10,"SingleNaming",1,6.78117112687268,"Younger","Single",1,0.5,-0.5,881.1,"7SingleNamingACTION"
"3378",7,"teeth","ACTION","brush",11,"SingleNaming",1,7.32600498144972,"Younger","Single",1,0.5,-0.5,1519.3,"7SingleNamingACTION"
"3650",7,"candle","ACTION","light",12,"SingleNaming",1,7.12157550283546,"Younger","Single",1,0.5,-0.5,1238.4,"7SingleNamingACTION"
"3920",7,"ladder","ACTION","climb",13,"SingleNaming",1,7.20533817611118,"Younger","Single",1,0.5,-0.5,1346.6,"7SingleNamingACTION"
"4201",7,"trophy","ACTION","win",14,"SingleNaming",1,7.17732429600699,"Younger","Single",1,0.5,-0.5,1309.4,"7SingleNamingACTION"
"4462",7,"cake","ACTION","bake",15,"SingleNaming",1,7.39976498849049,"Younger","Single",1,0.5,-0.5,1635.6,"7SingleNamingACTION"
"4709",7,"newspaper","ACTION","read",16,"SingleNaming",1,7.28858610613194,"Younger","Single",1,0.5,-0.5,1463.5,"7SingleNamingACTION"
"4985",7,"present","ACTION","give",17,"SingleNaming",1,7.34601020991329,"Younger","Single",1,0.5,-0.5,1550,"7SingleNamingACTION"
"5265",7,"pen","ACTION","write",18,"SingleNaming",1,7.18508393935443,"Younger","Single",1,0.5,-0.5,1319.6,"7SingleNamingACTION"
"5543",7,"suitcase","ACTION","pack",19,"SingleNaming",1,7.29220101986623,"Younger","Single",1,0.5,-0.5,1468.8,"7SingleNamingACTION"
"5818",7,"plane","ACTION","fly",20,"SingleNaming",1,7.11939289011015,"Younger","Single",1,0.5,-0.5,1235.7,"7SingleNamingACTION"
"6082",7,"cup","ACTION","drink",21,"SingleNaming",1,7.35519371856772,"Younger","Single",1,0.5,-0.5,1564.3,"7SingleNamingACTION"
"6361",7,"broom","ACTION","sweep",22,"SingleNaming",1,6.80892892467524,"Younger","Single",1,0.5,-0.5,905.9,"7SingleNamingACTION"
"6633",7,"plane","ACTION","fly",23,"SingleNaming",1,7.37644554614534,"Younger","Single",1,0.5,-0.5,1597.9,"7SingleNamingACTION"
"6915",7,"horse","ACTION","ride",24,"SingleNaming",1,7.27966360356146,"Younger","Single",1,0.5,-0.5,1450.5,"7SingleNamingACTION"
"7197",7,"cake","ACTION","bake",25,"SingleNaming",1,7.08095199744353,"Younger","Single",1,0.5,-0.5,1189.1,"7SingleNamingACTION"
"7477",7,"present","ACTION","give",26,"SingleNaming",1,6.84534781885352,"Younger","Single",1,0.5,-0.5,939.5,"7SingleNamingACTION"
"7760",7,"newspaper","ACTION","read",27,"SingleNaming",1,6.97877276621742,"Younger","Single",1,0.5,-0.5,1073.6,"7SingleNamingACTION"
"8037",7,"suitcase","ACTION","pack",28,"SingleNaming",1,7.41089141426375,"Younger","Single",1,0.5,-0.5,1653.9,"7SingleNamingACTION"
"8307",7,"teeth","ACTION","brush",29,"SingleNaming",1,7.25728475476,"Younger","Single",1,0.5,-0.5,1418.4,"7SingleNamingACTION"
"8585",7,"coat","ACTION","wear",30,"SingleNaming",1,7.35038771143174,"Younger","Single",1,0.5,-0.5,1556.8,"7SingleNamingACTION"
"8860",7,"pen","ACTION","write",31,"SingleNaming",1,7.08673793451058,"Younger","Single",1,0.5,-0.5,1196,"7SingleNamingACTION"
"9135",7,"soap","ACTION","wash",32,"SingleNaming",1,7.49320588408671,"Younger","Single",1,0.5,-0.5,1795.8,"7SingleNamingACTION"
"9416",7,"brain","ACTION","think",33,"SingleNaming",1,7.25233739856673,"Younger","Single",1,0.5,-0.5,1411.4,"7SingleNamingACTION"
"9699",7,"knife","ACTION","cut",34,"SingleNaming",1,6.82871207164168,"Younger","Single",1,0.5,-0.5,924,"7SingleNamingACTION"
"9970",7,"candle","ACTION","light",35,"SingleNaming",1,6.67392987932107,"Younger","Single",1,0.5,-0.5,791.5,"7SingleNamingACTION"
"10254",7,"ladder","ACTION","climb",36,"SingleNaming",1,7.45466207731908,"Younger","Single",1,0.5,-0.5,1727.9,"7SingleNamingACTION"
"10535",7,"strawberry","ACTION","eat",37,"SingleNaming",1,7.00006094976616,"Younger","Single",1,0.5,-0.5,1096.7,"7SingleNamingACTION"
"10824",7,"eye","ACTION","see",38,"SingleNaming",1,7.63084953591004,"Younger","Single",1,0.5,-0.5,2060.8,"7SingleNamingACTION"
"11107",7,"trophy","ACTION","win",39,"SingleNaming",1,7.33099481518947,"Younger","Single",1,0.5,-0.5,1526.9,"7SingleNamingACTION"
"11380",7,"toy","ACTION","play",40,"SingleNaming",1,7.05064276653068,"Younger","Single",1,0.5,-0.5,1153.6,"7SingleNamingACTION"
"658",8,"broom","OBJECT","broom",1,"SingleNaming",1,6.88877631238433,"Younger","Single",1,-0.5,-0.5,981.2,"8SingleNamingOBJECT"
"944",8,"ladder","OBJECT","ladder",2,"SingleNaming",1,6.527226656164,"Younger","Single",1,-0.5,-0.5,683.5,"8SingleNamingOBJECT"
"1211",8,"coat","OBJECT","coat",3,"SingleNaming",1,6.4707995037826,"Younger","Single",1,-0.5,-0.5,646,"8SingleNamingOBJECT"
"1485",8,"newspaper","OBJECT","newspaper",4,"SingleNaming",1,7.05358572719368,"Younger","Single",1,-0.5,-0.5,1157,"8SingleNamingOBJECT"
"1759",8,"suitcase","OBJECT","suitcase",5,"SingleNaming",1,6.73506717115642,"Younger","Single",1,-0.5,-0.5,841.4,"8SingleNamingOBJECT"
"2033",8,"plane","OBJECT","plane",6,"SingleNaming",1,6.68010157219004,"Younger","Single",1,-0.5,-0.5,796.4,"8SingleNamingOBJECT"
"2311",8,"soap","OBJECT","soap",7,"SingleNaming",1,7.30894459222751,"Younger","Single",1,-0.5,-0.5,1493.6,"8SingleNamingOBJECT"
"2593",8,"eye","OBJECT","eye",8,"SingleNaming",1,6.99273960288713,"Younger","Single",1,-0.5,-0.5,1088.7,"8SingleNamingOBJECT"
"2864",8,"present","OBJECT","present",9,"SingleNaming",1,7.38324383845844,"Younger","Single",1,-0.5,-0.5,1608.8,"8SingleNamingOBJECT"
"3122",8,"trophy","OBJECT","trophy",10,"SingleNaming",1,7.25184131408046,"Younger","Single",1,-0.5,-0.5,1410.7,"8SingleNamingOBJECT"
"3380",8,"teeth","OBJECT","teeth",11,"SingleNaming",1,6.70881641636475,"Younger","Single",1,-0.5,-0.5,819.6,"8SingleNamingOBJECT"
"3651",8,"pen","OBJECT","pen",12,"SingleNaming",1,6.65608364405339,"Younger","Single",1,-0.5,-0.5,777.5,"8SingleNamingOBJECT"
"3921",8,"toy","OBJECT","toy",13,"SingleNaming",1,6.89952147405503,"Younger","Single",1,-0.5,-0.5,991.8,"8SingleNamingOBJECT"
"4202",8,"knife","OBJECT","knife",14,"SingleNaming",1,6.52941883826223,"Younger","Single",1,-0.5,-0.5,685,"8SingleNamingOBJECT"
"4463",8,"cup","OBJECT","cup",15,"SingleNaming",1,6.36233821044653,"Younger","Single",1,-0.5,-0.5,579.6,"8SingleNamingOBJECT"
"4711",8,"horse","OBJECT","horse",16,"SingleNaming",1,6.58906401965601,"Younger","Single",1,-0.5,-0.5,727.1,"8SingleNamingOBJECT"
"4986",8,"candle","OBJECT","candle",17,"SingleNaming",1,6.45582729646363,"Younger","Single",1,-0.5,-0.5,636.4,"8SingleNamingOBJECT"
"5266",8,"brain","OBJECT","brain",18,"SingleNaming",1,6.33965358739642,"Younger","Single",1,-0.5,-0.5,566.6,"8SingleNamingOBJECT"
"5544",8,"strawberry","OBJECT","strawberry",19,"SingleNaming",1,6.41673228251233,"Younger","Single",1,-0.5,-0.5,612,"8SingleNamingOBJECT"
"5819",8,"cake","OBJECT","cake",20,"SingleNaming",1,6.94812917312041,"Younger","Single",1,-0.5,-0.5,1041.2,"8SingleNamingOBJECT"
"6083",8,"knife","OBJECT","knife",21,"SingleNaming",1,6.63542148347716,"Younger","Single",1,-0.5,-0.5,761.6,"8SingleNamingOBJECT"
"6363",8,"present","OBJECT","present",22,"SingleNaming",1,7.04873387224171,"Younger","Single",1,-0.5,-0.5,1151.4,"8SingleNamingOBJECT"
"6635",8,"horse","OBJECT","horse",23,"SingleNaming",1,6.85287661747215,"Younger","Single",1,-0.5,-0.5,946.6,"8SingleNamingOBJECT"
"6916",8,"teeth","OBJECT","teeth",24,"SingleNaming",1,6.63476475527335,"Younger","Single",1,-0.5,-0.5,761.1,"8SingleNamingOBJECT"
"7199",8,"newspaper","OBJECT","newspaper",25,"SingleNaming",1,6.7895346475947,"Younger","Single",1,-0.5,-0.5,888.5,"8SingleNamingOBJECT"
"7479",8,"candle","OBJECT","candle",26,"SingleNaming",1,6.86045400586412,"Younger","Single",1,-0.5,-0.5,953.8,"8SingleNamingOBJECT"
"7762",8,"brain","OBJECT","brain",27,"SingleNaming",1,6.91948620185784,"Younger","Single",1,-0.5,-0.5,1011.8,"8SingleNamingOBJECT"
"8038",8,"plane","OBJECT","plane",28,"SingleNaming",1,7.00606096776626,"Younger","Single",1,-0.5,-0.5,1103.3,"8SingleNamingOBJECT"
"8309",8,"suitcase","OBJECT","suitcase",29,"SingleNaming",1,6.98878211762451,"Younger","Single",1,-0.5,-0.5,1084.4,"8SingleNamingOBJECT"
"8862",8,"pen","OBJECT","pen",31,"SingleNaming",1,6.86984570590892,"Younger","Single",1,-0.5,-0.5,962.8,"8SingleNamingOBJECT"
"9136",8,"strawberry","OBJECT","strawberry",32,"SingleNaming",1,6.90945383561772,"Younger","Single",1,-0.5,-0.5,1001.7,"8SingleNamingOBJECT"
"9418",8,"ladder","OBJECT","ladder",33,"SingleNaming",1,6.7102794744165,"Younger","Single",1,-0.5,-0.5,820.8,"8SingleNamingOBJECT"
"9701",8,"cake","OBJECT","cake",34,"SingleNaming",1,6.74852505341158,"Younger","Single",1,-0.5,-0.5,852.8,"8SingleNamingOBJECT"
"9972",8,"coat","OBJECT","coat",35,"SingleNaming",1,6.84321675784457,"Younger","Single",1,-0.5,-0.5,937.5,"8SingleNamingOBJECT"
"10255",8,"toy","OBJECT","toy",36,"SingleNaming",1,6.8031722387897,"Younger","Single",1,-0.5,-0.5,900.7,"8SingleNamingOBJECT"
"10537",8,"broom","OBJECT","broom",37,"SingleNaming",1,6.73173383473666,"Younger","Single",1,-0.5,-0.5,838.6,"8SingleNamingOBJECT"
"10826",8,"eye","OBJECT","eye",38,"SingleNaming",1,6.77308037565554,"Younger","Single",1,-0.5,-0.5,874,"8SingleNamingOBJECT"
"11109",8,"soap","OBJECT","soap",39,"SingleNaming",1,6.70881641636475,"Younger","Single",1,-0.5,-0.5,819.6,"8SingleNamingOBJECT"
"11383",8,"cup","OBJECT","cup",40,"SingleNaming",1,6.97578768937396,"Younger","Single",1,-0.5,-0.5,1070.4,"8SingleNamingOBJECT"
"659",8,"brain","ACTION","think",1,"SingleNaming",1,7.34154865907716,"Younger","Single",1,0.5,-0.5,1543.1,"8SingleNamingACTION"
"945",8,"horse","ACTION","ride",2,"SingleNaming",1,6.91234473131594,"Younger","Single",1,0.5,-0.5,1004.6,"8SingleNamingACTION"
"1212",8,"eye","ACTION","see",3,"SingleNaming",1,6.85646198459459,"Younger","Single",1,0.5,-0.5,950,"8SingleNamingACTION"
"1484",8,"broom","ACTION","sweep",4,"SingleNaming",1,6.80239476332431,"Younger","Single",1,0.5,-0.5,900,"8SingleNamingACTION"
"1760",8,"coat","ACTION","wear",5,"SingleNaming",1,6.79245665461867,"Younger","Single",1,0.5,-0.5,891.1,"8SingleNamingACTION"
"2034",8,"soap","ACTION","wash",6,"SingleNaming",1,7.18090729964959,"Younger","Single",1,0.5,-0.5,1314.1,"8SingleNamingACTION"
"2310",8,"toy","ACTION","play",7,"SingleNaming",1,6.94572521023377,"Younger","Single",1,0.5,-0.5,1038.7,"8SingleNamingACTION"
"2592",8,"cup","ACTION","drink",8,"SingleNaming",1,6.98582681440229,"Younger","Single",1,0.5,-0.5,1081.2,"8SingleNamingACTION"
"2863",8,"strawberry","ACTION","eat",9,"SingleNaming",1,6.49632239909418,"Younger","Single",1,0.5,-0.5,662.7,"8SingleNamingACTION"
"3121",8,"knife","ACTION","cut",10,"SingleNaming",1,7.10512963840238,"Younger","Single",1,0.5,-0.5,1218.2,"8SingleNamingACTION"
"3652",8,"candle","ACTION","light",12,"SingleNaming",1,7.73245689928238,"Younger","Single",1,0.5,-0.5,2281.2,"8SingleNamingACTION"
"3922",8,"ladder","ACTION","climb",13,"SingleNaming",1,7.02837872130588,"Younger","Single",1,0.5,-0.5,1128.2,"8SingleNamingACTION"
"4203",8,"trophy","ACTION","win",14,"SingleNaming",1,6.87181717217651,"Younger","Single",1,0.5,-0.5,964.7,"8SingleNamingACTION"
"4464",8,"cake","ACTION","bake",15,"SingleNaming",1,7.34678410392844,"Younger","Single",1,0.5,-0.5,1551.2,"8SingleNamingACTION"
"4712",8,"newspaper","ACTION","read",16,"SingleNaming",1,7.1024170478607,"Younger","Single",1,0.5,-0.5,1214.9,"8SingleNamingACTION"
"4987",8,"present","ACTION","give",17,"SingleNaming",1,7.05038267723189,"Younger","Single",1,0.5,-0.5,1153.3,"8SingleNamingACTION"
"5267",8,"pen","ACTION","write",18,"SingleNaming",1,7.02028006982398,"Younger","Single",1,0.5,-0.5,1119.1,"8SingleNamingACTION"
"5545",8,"suitcase","ACTION","pack",19,"SingleNaming",1,7.03447603176129,"Younger","Single",1,0.5,-0.5,1135.1,"8SingleNamingACTION"
"5820",8,"plane","ACTION","fly",20,"SingleNaming",1,7.20184179910691,"Younger","Single",1,0.5,-0.5,1341.9,"8SingleNamingACTION"
"6084",8,"cup","ACTION","drink",21,"SingleNaming",1,7.01139431374162,"Younger","Single",1,0.5,-0.5,1109.2,"8SingleNamingACTION"
"6364",8,"broom","ACTION","sweep",22,"SingleNaming",1,7.26584921567428,"Younger","Single",1,0.5,-0.5,1430.6,"8SingleNamingACTION"
"6636",8,"plane","ACTION","fly",23,"SingleNaming",1,6.87585172996913,"Younger","Single",1,0.5,-0.5,968.6,"8SingleNamingACTION"
"6917",8,"horse","ACTION","ride",24,"SingleNaming",1,6.86994956424624,"Younger","Single",1,0.5,-0.5,962.9,"8SingleNamingACTION"
"7200",8,"cake","ACTION","bake",25,"SingleNaming",1,7.0143650140404,"Younger","Single",1,0.5,-0.5,1112.5,"8SingleNamingACTION"
"7480",8,"present","ACTION","give",26,"SingleNaming",1,7.11428152447291,"Younger","Single",1,0.5,-0.5,1229.4,"8SingleNamingACTION"
"7761",8,"newspaper","ACTION","read",27,"SingleNaming",1,6.80172787433661,"Younger","Single",1,0.5,-0.5,899.4,"8SingleNamingACTION"
"8039",8,"suitcase","ACTION","pack",28,"SingleNaming",1,7.35525764288136,"Younger","Single",1,0.5,-0.5,1564.4,"8SingleNamingACTION"
"8308",8,"teeth","ACTION","brush",29,"SingleNaming",1,6.92794998626766,"Younger","Single",1,0.5,-0.5,1020.4,"8SingleNamingACTION"
"8586",8,"coat","ACTION","wear",30,"SingleNaming",1,7.54750168281497,"Younger","Single",1,0.5,-0.5,1896,"8SingleNamingACTION"
"8863",8,"pen","ACTION","write",31,"SingleNaming",1,6.89416332546267,"Younger","Single",1,0.5,-0.5,986.5,"8SingleNamingACTION"
"9137",8,"soap","ACTION","wash",32,"SingleNaming",1,7.7925966225827,"Younger","Single",1,0.5,-0.5,2422.6,"8SingleNamingACTION"
"9419",8,"brain","ACTION","think",33,"SingleNaming",1,7.47358032096673,"Younger","Single",1,0.5,-0.5,1760.9,"8SingleNamingACTION"
"9702",8,"knife","ACTION","cut",34,"SingleNaming",1,6.84864201448963,"Younger","Single",1,0.5,-0.5,942.6,"8SingleNamingACTION"
"9973",8,"candle","ACTION","light",35,"SingleNaming",1,6.86045400586412,"Younger","Single",1,0.5,-0.5,953.8,"8SingleNamingACTION"
"10256",8,"ladder","ACTION","climb",36,"SingleNaming",1,6.96640147441487,"Younger","Single",1,0.5,-0.5,1060.4,"8SingleNamingACTION"
"10538",8,"strawberry","ACTION","eat",37,"SingleNaming",1,6.92274240879039,"Younger","Single",1,0.5,-0.5,1015.1,"8SingleNamingACTION"
"10825",8,"eye","ACTION","see",38,"SingleNaming",1,6.72958509331066,"Younger","Single",1,0.5,-0.5,836.8,"8SingleNamingACTION"
"11108",8,"trophy","ACTION","win",39,"SingleNaming",1,6.68860374893746,"Younger","Single",1,0.5,-0.5,803.2,"8SingleNamingACTION"
"11382",8,"toy","ACTION","play",40,"SingleNaming",1,6.9079552589848,"Younger","Single",1,0.5,-0.5,1000.2,"8SingleNamingACTION"
"660",9,"broom","OBJECT","broom",1,"SingleNaming",1,7.07521697286907,"Younger","Single",1,-0.5,-0.5,1182.3,"9SingleNamingOBJECT"
"946",9,"candle","OBJECT","candle",2,"SingleNaming",1,6.95416165179629,"Younger","Single",1,-0.5,-0.5,1047.5,"9SingleNamingOBJECT"
"1214",9,"suitcase","OBJECT","suitcase",3,"SingleNaming",1,7.21788354026375,"Younger","Single",1,-0.5,-0.5,1363.6,"9SingleNamingOBJECT"
"1761",9,"soap","OBJECT","soap",5,"SingleNaming",1,7.32376460096597,"Younger","Single",1,-0.5,-0.5,1515.9,"9SingleNamingOBJECT"
"3383",9,"strawberry","OBJECT","strawberry",11,"SingleNaming",1,7.35090145405799,"Younger","Single",1,-0.5,-0.5,1557.6,"9SingleNamingOBJECT"
"3924",9,"eye","OBJECT","eye",13,"SingleNaming",1,7.25650893217286,"Younger","Single",1,-0.5,-0.5,1417.3,"9SingleNamingOBJECT"
"4466",9,"teeth","OBJECT","teeth",15,"SingleNaming",1,7.38876066633565,"Younger","Single",1,-0.5,-0.5,1617.7,"9SingleNamingOBJECT"
"4714",9,"present","OBJECT","present",16,"SingleNaming",1,7.44821737187643,"Younger","Single",1,-0.5,-0.5,1716.8,"9SingleNamingOBJECT"
"4989",9,"brain","OBJECT","brain",17,"SingleNaming",1,7.35921299094077,"Younger","Single",1,-0.5,-0.5,1570.6,"9SingleNamingOBJECT"
"5269",9,"toy","OBJECT","toy",18,"SingleNaming",1,7.38423787432558,"Younger","Single",1,-0.5,-0.5,1610.4,"9SingleNamingOBJECT"
"6086",9,"teeth","OBJECT","teeth",21,"SingleNaming",1,7.56309674480618,"Younger","Single",1,-0.5,-0.5,1925.8,"9SingleNamingOBJECT"
"6365",9,"coat","OBJECT","coat",22,"SingleNaming",1,6.57660883511627,"Younger","Single",1,-0.5,-0.5,718.1,"9SingleNamingOBJECT"
"6637",9,"cake","OBJECT","cake",23,"SingleNaming",1,6.58160954007823,"Younger","Single",1,-0.5,-0.5,721.7,"9SingleNamingOBJECT"
"6918",9,"toy","OBJECT","toy",24,"SingleNaming",1,6.68648497204961,"Younger","Single",1,-0.5,-0.5,801.5,"9SingleNamingOBJECT"
"7201",9,"strawberry","OBJECT","strawberry",25,"SingleNaming",1,6.91592184164853,"Younger","Single",1,-0.5,-0.5,1008.2,"9SingleNamingOBJECT"
"7482",9,"plane","OBJECT","plane",26,"SingleNaming",1,6.93371538065167,"Younger","Single",1,-0.5,-0.5,1026.3,"9SingleNamingOBJECT"
"7763",9,"knife","OBJECT","knife",27,"SingleNaming",1,6.96847401401684,"Younger","Single",1,-0.5,-0.5,1062.6,"9SingleNamingOBJECT"
"8040",9,"suitcase","OBJECT","suitcase",28,"SingleNaming",1,7.08740660722021,"Younger","Single",1,-0.5,-0.5,1196.8,"9SingleNamingOBJECT"
"8310",9,"trophy","OBJECT","trophy",29,"SingleNaming",1,7.08757370555797,"Younger","Single",1,-0.5,-0.5,1197,"9SingleNamingOBJECT"
"8588",9,"ladder","OBJECT","ladder",30,"SingleNaming",1,6.97185620438866,"Younger","Single",1,-0.5,-0.5,1066.2,"9SingleNamingOBJECT"
"8864",9,"eye","OBJECT","eye",31,"SingleNaming",1,7.13185836979105,"Younger","Single",1,-0.5,-0.5,1251.2,"9SingleNamingOBJECT"
"9138",9,"newspaper","OBJECT","newspaper",32,"SingleNaming",1,6.81377421551124,"Younger","Single",1,-0.5,-0.5,910.3,"9SingleNamingOBJECT"
"9420",9,"candle","OBJECT","candle",33,"SingleNaming",1,6.84460246397687,"Younger","Single",1,-0.5,-0.5,938.8,"9SingleNamingOBJECT"
"9703",9,"present","OBJECT","present",34,"SingleNaming",1,6.80172787433661,"Younger","Single",1,-0.5,-0.5,899.4,"9SingleNamingOBJECT"
"9974",9,"horse","OBJECT","horse",35,"SingleNaming",1,6.80172787433661,"Younger","Single",1,-0.5,-0.5,899.4,"9SingleNamingOBJECT"
"10257",9,"brain","OBJECT","brain",36,"SingleNaming",1,6.95129358099662,"Younger","Single",1,-0.5,-0.5,1044.5,"9SingleNamingOBJECT"
"10539",9,"cup","OBJECT","cup",37,"SingleNaming",1,6.80881853112211,"Younger","Single",1,-0.5,-0.5,905.8,"9SingleNamingOBJECT"
"10828",9,"pen","OBJECT","pen",38,"SingleNaming",1,7.53444209284181,"Younger","Single",1,-0.5,-0.5,1871.4,"9SingleNamingOBJECT"
"11110",9,"soap","OBJECT","soap",39,"SingleNaming",1,7.28803932189304,"Younger","Single",1,-0.5,-0.5,1462.7,"9SingleNamingOBJECT"
"11385",9,"broom","OBJECT","broom",40,"SingleNaming",1,7.29959464350849,"Younger","Single",1,-0.5,-0.5,1479.7,"9SingleNamingOBJECT"
"661",9,"teeth","ACTION","brush",1,"SingleNaming",1,7.20719298244477,"Younger","Single",1,0.5,-0.5,1349.1,"9SingleNamingACTION"
"947",9,"strawberry","ACTION","eat",2,"SingleNaming",1,6.99539978883418,"Younger","Single",1,0.5,-0.5,1091.6,"9SingleNamingACTION"
"1213",9,"cup","ACTION","drink",3,"SingleNaming",1,6.87181717217651,"Younger","Single",1,0.5,-0.5,964.7,"9SingleNamingACTION"
"1486",9,"broom","ACTION","sweep",4,"SingleNaming",1,7.11728660287648,"Younger","Single",1,0.5,-0.5,1233.1,"9SingleNamingACTION"
"1762",9,"eye","ACTION","see",5,"SingleNaming",1,7.20452097016696,"Younger","Single",1,0.5,-0.5,1345.5,"9SingleNamingACTION"
"2035",9,"present","ACTION","give",6,"SingleNaming",1,6.99209642741589,"Younger","Single",1,0.5,-0.5,1088,"9SingleNamingACTION"
"2312",9,"suitcase","ACTION","pack",7,"SingleNaming",1,7.21788354026375,"Younger","Single",1,0.5,-0.5,1363.6,"9SingleNamingACTION"
"2594",9,"candle","ACTION","light",8,"SingleNaming",1,7.08740660722021,"Younger","Single",1,0.5,-0.5,1196.8,"9SingleNamingACTION"
"2865",9,"pen","ACTION","write",9,"SingleNaming",1,6.9987835773297,"Younger","Single",1,0.5,-0.5,1095.3,"9SingleNamingACTION"
"3123",9,"toy","ACTION","play",10,"SingleNaming",1,7.67350215195643,"Younger","Single",1,0.5,-0.5,2150.6,"9SingleNamingACTION"
"3382",9,"horse","ACTION","ride",11,"SingleNaming",1,7.32376460096597,"Younger","Single",1,0.5,-0.5,1515.9,"9SingleNamingACTION"
"3653",9,"coat","ACTION","wear",12,"SingleNaming",1,6.97532046514456,"Younger","Single",1,0.5,-0.5,1069.9,"9SingleNamingACTION"
"3923",9,"plane","ACTION","fly",13,"SingleNaming",1,7.06287691584944,"Younger","Single",1,0.5,-0.5,1167.8,"9SingleNamingACTION"
"4465",9,"ladder","ACTION","climb",15,"SingleNaming",1,7.35672677539944,"Younger","Single",1,0.5,-0.5,1566.7,"9SingleNamingACTION"
"4713",9,"knife","ACTION","cut",16,"SingleNaming",1,7.30444869470318,"Younger","Single",1,0.5,-0.5,1486.9,"9SingleNamingACTION"
"4988",9,"soap","ACTION","wash",17,"SingleNaming",1,7.2311422760547,"Younger","Single",1,0.5,-0.5,1381.8,"9SingleNamingACTION"
"5268",9,"newspaper","ACTION","read",18,"SingleNaming",1,6.95129358099662,"Younger","Single",1,0.5,-0.5,1044.5,"9SingleNamingACTION"
"5546",9,"brain","ACTION","think",19,"SingleNaming",1,6.89416332546267,"Younger","Single",1,0.5,-0.5,986.5,"9SingleNamingACTION"
"5821",9,"trophy","ACTION","win",20,"SingleNaming",1,6.83346267440028,"Younger","Single",1,0.5,-0.5,928.4,"9SingleNamingACTION"
"6085",9,"knife","ACTION","cut",21,"SingleNaming",1,7.22059327131504,"Younger","Single",1,0.5,-0.5,1367.3,"9SingleNamingACTION"
"6366",9,"strawberry","ACTION","eat",22,"SingleNaming",1,7.37054545370957,"Younger","Single",1,0.5,-0.5,1588.5,"9SingleNamingACTION"
"6919",9,"brain","ACTION","think",24,"SingleNaming",1,7.62515595134279,"Younger","Single",1,0.5,-0.5,2049.1,"9SingleNamingACTION"
"7202",9,"eye","ACTION","see",25,"SingleNaming",1,7.03447603176129,"Younger","Single",1,0.5,-0.5,1135.1,"9SingleNamingACTION"
"7481",9,"ladder","ACTION","climb",26,"SingleNaming",1,6.93020146781197,"Younger","Single",1,0.5,-0.5,1022.7,"9SingleNamingACTION"
"8311",9,"pen","ACTION","write",29,"SingleNaming",1,7.10840779246081,"Younger","Single",1,0.5,-0.5,1222.2,"9SingleNamingACTION"
"9421",9,"plane","ACTION","fly",33,"SingleNaming",1,7.22322273744185,"Younger","Single",1,0.5,-0.5,1370.9,"9SingleNamingACTION"
"10540",9,"soap","ACTION","wash",37,"SingleNaming",1,7.50439155916124,"Younger","Single",1,0.5,-0.5,1816,"9SingleNamingACTION"
"10827",9,"newspaper","ACTION","read",38,"SingleNaming",1,7.06090545847581,"Younger","Single",1,0.5,-0.5,1165.5,"9SingleNamingACTION"
"11384",9,"trophy","ACTION","win",40,"SingleNaming",1,7.18977132980729,"Younger","Single",1,0.5,-0.5,1325.8,"9SingleNamingACTION"
"662",10,"broom","OBJECT","broom",1,"SingleNaming",1,6.89780594812847,"Younger","Single",1,-0.5,-0.5,990.1,"10SingleNamingOBJECT"
"948",10,"ladder","OBJECT","ladder",2,"SingleNaming",1,7.26577931249016,"Younger","Single",1,-0.5,-0.5,1430.5,"10SingleNamingOBJECT"
"1215",10,"coat","OBJECT","coat",3,"SingleNaming",1,7.11428152447291,"Younger","Single",1,-0.5,-0.5,1229.4,"10SingleNamingOBJECT"
"1487",10,"newspaper","OBJECT","newspaper",4,"SingleNaming",1,6.90143535023732,"Younger","Single",1,-0.5,-0.5,993.7,"10SingleNamingOBJECT"
"1764",10,"suitcase","OBJECT","suitcase",5,"SingleNaming",1,6.98536425830912,"Younger","Single",1,-0.5,-0.5,1080.7,"10SingleNamingOBJECT"
"2037",10,"plane","OBJECT","plane",6,"SingleNaming",1,7.24643935339995,"Younger","Single",1,-0.5,-0.5,1403.1,"10SingleNamingOBJECT"
"2313",10,"soap","OBJECT","soap",7,"SingleNaming",1,6.80771392480191,"Younger","Single",1,-0.5,-0.5,904.8,"10SingleNamingOBJECT"
"2595",10,"eye","OBJECT","eye",8,"SingleNaming",1,6.97251252619742,"Younger","Single",1,-0.5,-0.5,1066.9,"10SingleNamingOBJECT"
"2867",10,"present","OBJECT","present",9,"SingleNaming",1,7.15664454671476,"Younger","Single",1,-0.5,-0.5,1282.6,"10SingleNamingOBJECT"
"3125",10,"trophy","OBJECT","trophy",10,"SingleNaming",1,7.20124545171689,"Younger","Single",1,-0.5,-0.5,1341.1,"10SingleNamingOBJECT"
"3384",10,"teeth","OBJECT","teeth",11,"SingleNaming",1,7.01391547481053,"Younger","Single",1,-0.5,-0.5,1112,"10SingleNamingOBJECT"
"3654",10,"pen","OBJECT","pen",12,"SingleNaming",1,6.95091054929606,"Younger","Single",1,-0.5,-0.5,1044.1,"10SingleNamingOBJECT"
"3925",10,"toy","OBJECT","toy",13,"SingleNaming",1,6.95311098070293,"Younger","Single",1,-0.5,-0.5,1046.4,"10SingleNamingOBJECT"
"4467",10,"cup","OBJECT","cup",15,"SingleNaming",1,7.33250000182226,"Younger","Single",1,-0.5,-0.5,1529.2,"10SingleNamingOBJECT"
"4716",10,"horse","OBJECT","horse",16,"SingleNaming",1,7.32646561384032,"Younger","Single",1,-0.5,-0.5,1520,"10SingleNamingOBJECT"
"4990",10,"candle","OBJECT","candle",17,"SingleNaming",1,7.13473147631652,"Younger","Single",1,-0.5,-0.5,1254.8,"10SingleNamingOBJECT"
"5271",10,"brain","OBJECT","brain",18,"SingleNaming",1,7.12913727967669,"Younger","Single",1,-0.5,-0.5,1247.8,"10SingleNamingOBJECT"
"5547",10,"strawberry","OBJECT","strawberry",19,"SingleNaming",1,6.8612924045718,"Younger","Single",1,-0.5,-0.5,954.6,"10SingleNamingOBJECT"
"5822",10,"cake","OBJECT","cake",20,"SingleNaming",1,6.86213010095586,"Younger","Single",1,-0.5,-0.5,955.4,"10SingleNamingOBJECT"
"6087",10,"knife","OBJECT","knife",21,"SingleNaming",1,7.005335607321,"Younger","Single",1,-0.5,-0.5,1102.5,"10SingleNamingOBJECT"
"6368",10,"present","OBJECT","present",22,"SingleNaming",1,6.82957749791811,"Younger","Single",1,-0.5,-0.5,924.8,"10SingleNamingOBJECT"
"6639",10,"horse","OBJECT","horse",23,"SingleNaming",1,6.94080313302834,"Younger","Single",1,-0.5,-0.5,1033.6,"10SingleNamingOBJECT"
"6920",10,"teeth","OBJECT","teeth",24,"SingleNaming",1,6.82165257992873,"Younger","Single",1,-0.5,-0.5,917.5,"10SingleNamingOBJECT"
"7203",10,"newspaper","OBJECT","newspaper",25,"SingleNaming",1,7.02491589875571,"Younger","Single",1,-0.5,-0.5,1124.3,"10SingleNamingOBJECT"
"7483",10,"candle","OBJECT","candle",26,"SingleNaming",1,6.7854746442733,"Younger","Single",1,-0.5,-0.5,884.9,"10SingleNamingOBJECT"
"7765",10,"brain","OBJECT","brain",27,"SingleNaming",1,7.07825725897075,"Younger","Single",1,-0.5,-0.5,1185.9,"10SingleNamingOBJECT"
"8042",10,"plane","OBJECT","plane",28,"SingleNaming",1,6.94928102581064,"Younger","Single",1,-0.5,-0.5,1042.4,"10SingleNamingOBJECT"
"8312",10,"suitcase","OBJECT","suitcase",29,"SingleNaming",1,6.88673591175806,"Younger","Single",1,-0.5,-0.5,979.2,"10SingleNamingOBJECT"
"8590",10,"trophy","OBJECT","trophy",30,"SingleNaming",1,6.87181717217651,"Younger","Single",1,-0.5,-0.5,964.7,"10SingleNamingOBJECT"
"8865",10,"pen","OBJECT","pen",31,"SingleNaming",1,6.80572255341699,"Younger","Single",1,-0.5,-0.5,903,"10SingleNamingOBJECT"
"9139",10,"strawberry","OBJECT","strawberry",32,"SingleNaming",1,6.80981163465201,"Younger","Single",1,-0.5,-0.5,906.7,"10SingleNamingOBJECT"
"9423",10,"ladder","OBJECT","ladder",33,"SingleNaming",1,7.16881099536621,"Younger","Single",1,-0.5,-0.5,1298.3,"10SingleNamingOBJECT"
"9705",10,"cake","OBJECT","cake",34,"SingleNaming",1,6.92313638102044,"Younger","Single",1,-0.5,-0.5,1015.5,"10SingleNamingOBJECT"
"9975",10,"coat","OBJECT","coat",35,"SingleNaming",1,6.99539978883418,"Younger","Single",1,-0.5,-0.5,1091.6,"10SingleNamingOBJECT"
"10258",10,"toy","OBJECT","toy",36,"SingleNaming",1,6.85445998192391,"Younger","Single",1,-0.5,-0.5,948.1,"10SingleNamingOBJECT"
"10541",10,"broom","OBJECT","broom",37,"SingleNaming",1,6.84896023247163,"Younger","Single",1,-0.5,-0.5,942.9,"10SingleNamingOBJECT"
"10829",10,"eye","OBJECT","eye",38,"SingleNaming",1,6.75495368872417,"Younger","Single",1,-0.5,-0.5,858.3,"10SingleNamingOBJECT"
"11112",10,"soap","OBJECT","soap",39,"SingleNaming",1,7.32376460096597,"Younger","Single",1,-0.5,-0.5,1515.9,"10SingleNamingOBJECT"
"11386",10,"cup","OBJECT","cup",40,"SingleNaming",1,7.1024170478607,"Younger","Single",1,-0.5,-0.5,1214.9,"10SingleNamingOBJECT"
"663",10,"brain","ACTION","think",1,"SingleNaming",1,7.24928612779421,"Younger","Single",1,0.5,-0.5,1407.1,"10SingleNamingACTION"
"1216",10,"eye","ACTION","see",3,"SingleNaming",1,7.27475672063817,"Younger","Single",1,0.5,-0.5,1443.4,"10SingleNamingACTION"
"1488",10,"broom","ACTION","sweep",4,"SingleNaming",1,7.5108683368381,"Younger","Single",1,0.5,-0.5,1827.8,"10SingleNamingACTION"
"1763",10,"coat","ACTION","wear",5,"SingleNaming",1,6.90143535023732,"Younger","Single",1,0.5,-0.5,993.7,"10SingleNamingACTION"
"2036",10,"soap","ACTION","wash",6,"SingleNaming",1,6.7648082696622,"Younger","Single",1,0.5,-0.5,866.8,"10SingleNamingACTION"
"2314",10,"toy","ACTION","play",7,"SingleNaming",1,6.87554195661749,"Younger","Single",1,0.5,-0.5,968.3,"10SingleNamingACTION"
"2866",10,"strawberry","ACTION","eat",9,"SingleNaming",1,7.09041011356621,"Younger","Single",1,0.5,-0.5,1200.4,"10SingleNamingACTION"
"3124",10,"knife","ACTION","cut",10,"SingleNaming",1,6.94428005366451,"Younger","Single",1,0.5,-0.5,1037.2,"10SingleNamingACTION"
"3385",10,"teeth","ACTION","brush",11,"SingleNaming",1,7.29959464350849,"Younger","Single",1,0.5,-0.5,1479.7,"10SingleNamingACTION"
"3926",10,"ladder","ACTION","climb",13,"SingleNaming",1,7.2337441855885,"Younger","Single",1,0.5,-0.5,1385.4,"10SingleNamingACTION"
"4204",10,"trophy","ACTION","win",14,"SingleNaming",1,6.87925291850943,"Younger","Single",1,0.5,-0.5,971.9,"10SingleNamingACTION"
"4468",10,"cake","ACTION","bake",15,"SingleNaming",1,7.45789776512508,"Younger","Single",1,0.5,-0.5,1733.5,"10SingleNamingACTION"
"4715",10,"newspaper","ACTION","read",16,"SingleNaming",1,6.88673591175806,"Younger","Single",1,0.5,-0.5,979.2,"10SingleNamingACTION"
"4991",10,"present","ACTION","give",17,"SingleNaming",1,7.27980147754486,"Younger","Single",1,0.5,-0.5,1450.7,"10SingleNamingACTION"
"5270",10,"pen","ACTION","write",18,"SingleNaming",1,7.05038267723189,"Younger","Single",1,0.5,-0.5,1153.3,"10SingleNamingACTION"
"5548",10,"suitcase","ACTION","pack",19,"SingleNaming",1,7.11728660287648,"Younger","Single",1,0.5,-0.5,1233.1,"10SingleNamingACTION"
"5823",10,"plane","ACTION","fly",20,"SingleNaming",1,7.00859559390821,"Younger","Single",1,0.5,-0.5,1106.1,"10SingleNamingACTION"
"6088",10,"cup","ACTION","drink",21,"SingleNaming",1,7.22336861636261,"Younger","Single",1,0.5,-0.5,1371.1,"10SingleNamingACTION"
"6367",10,"broom","ACTION","sweep",22,"SingleNaming",1,6.73601751572783,"Younger","Single",1,0.5,-0.5,842.2,"10SingleNamingACTION"
"6638",10,"plane","ACTION","fly",23,"SingleNaming",1,6.70023898355363,"Younger","Single",1,0.5,-0.5,812.6,"10SingleNamingACTION"
"6921",10,"horse","ACTION","ride",24,"SingleNaming",1,7.0119350978918,"Younger","Single",1,0.5,-0.5,1109.8,"10SingleNamingACTION"
"7204",10,"cake","ACTION","bake",25,"SingleNaming",1,7.11728660287648,"Younger","Single",1,0.5,-0.5,1233.1,"10SingleNamingACTION"
"7484",10,"present","ACTION","give",26,"SingleNaming",1,7.66673701546363,"Younger","Single",1,0.5,-0.5,2136.1,"10SingleNamingACTION"
"7764",10,"newspaper","ACTION","read",27,"SingleNaming",1,6.86045400586412,"Younger","Single",1,0.5,-0.5,953.8,"10SingleNamingACTION"
"8041",10,"suitcase","ACTION","pack",28,"SingleNaming",1,6.88284764327595,"Younger","Single",1,0.5,-0.5,975.4,"10SingleNamingACTION"
"8313",10,"teeth","ACTION","brush",29,"SingleNaming",1,7.005335607321,"Younger","Single",1,0.5,-0.5,1102.5,"10SingleNamingACTION"
"8589",10,"coat","ACTION","wear",30,"SingleNaming",1,6.51397167564781,"Younger","Single",1,0.5,-0.5,674.5,"10SingleNamingACTION"
"8866",10,"pen","ACTION","write",31,"SingleNaming",1,7.06150587878806,"Younger","Single",1,0.5,-0.5,1166.2,"10SingleNamingACTION"
"9140",10,"soap","ACTION","wash",32,"SingleNaming",1,7.13767581457537,"Younger","Single",1,0.5,-0.5,1258.5,"10SingleNamingACTION"
"9422",10,"brain","ACTION","think",33,"SingleNaming",1,6.83346267440028,"Younger","Single",1,0.5,-0.5,928.4,"10SingleNamingACTION"
"9704",10,"knife","ACTION","cut",34,"SingleNaming",1,6.66364342123173,"Younger","Single",1,0.5,-0.5,783.4,"10SingleNamingACTION"
"9976",10,"candle","ACTION","light",35,"SingleNaming",1,7.06287691584944,"Younger","Single",1,0.5,-0.5,1167.8,"10SingleNamingACTION"
"10259",10,"ladder","ACTION","climb",36,"SingleNaming",1,6.93020146781197,"Younger","Single",1,0.5,-0.5,1022.7,"10SingleNamingACTION"
"10542",10,"strawberry","ACTION","eat",37,"SingleNaming",1,7.43467076389708,"Younger","Single",1,0.5,-0.5,1693.7,"10SingleNamingACTION"
"10830",10,"eye","ACTION","see",38,"SingleNaming",1,7.07521697286907,"Younger","Single",1,0.5,-0.5,1182.3,"10SingleNamingACTION"
"11111",10,"trophy","ACTION","win",39,"SingleNaming",1,7.15195557282196,"Younger","Single",1,0.5,-0.5,1276.6,"10SingleNamingACTION"
"11387",10,"toy","ACTION","play",40,"SingleNaming",1,7.70341392049516,"Younger","Single",1,0.5,-0.5,2215.9,"10SingleNamingACTION"
"664",11,"teeth","ACTION","brush",1,"SingleNaming",1,7.01049235643325,"Younger","Single",1,0.5,-0.5,1108.2,"11SingleNamingACTION"
"949",11,"strawberry","ACTION","eat",2,"SingleNaming",1,6.99384122789527,"Younger","Single",1,0.5,-0.5,1089.9,"11SingleNamingACTION"
"1218",11,"cup","ACTION","drink",3,"SingleNaming",1,6.99154480471182,"Younger","Single",1,0.5,-0.5,1087.4,"11SingleNamingACTION"
"1489",11,"broom","ACTION","sweep",4,"SingleNaming",1,6.71852994587139,"Younger","Single",1,0.5,-0.5,827.6,"11SingleNamingACTION"
"1765",11,"eye","ACTION","see",5,"SingleNaming",1,6.93818748610234,"Younger","Single",1,0.5,-0.5,1030.9,"11SingleNamingACTION"
"2038",11,"present","ACTION","give",6,"SingleNaming",1,7.36404023608694,"Younger","Single",1,0.5,-0.5,1578.2,"11SingleNamingACTION"
"2316",11,"suitcase","ACTION","pack",7,"SingleNaming",1,7.24750784372492,"Younger","Single",1,0.5,-0.5,1404.6,"11SingleNamingACTION"
"2597",11,"candle","ACTION","light",8,"SingleNaming",1,7.43814820824066,"Younger","Single",1,0.5,-0.5,1699.6,"11SingleNamingACTION"
"2868",11,"pen","ACTION","write",9,"SingleNaming",1,6.9987835773297,"Younger","Single",1,0.5,-0.5,1095.3,"11SingleNamingACTION"
"3126",11,"toy","ACTION","play",10,"SingleNaming",1,6.67190635517037,"Younger","Single",1,0.5,-0.5,789.9,"11SingleNamingACTION"
"3387",11,"horse","ACTION","ride",11,"SingleNaming",1,7.13073881749498,"Younger","Single",1,0.5,-0.5,1249.8,"11SingleNamingACTION"
"3657",11,"coat","ACTION","wear",12,"SingleNaming",1,7.85469160097068,"Younger","Single",1,0.5,-0.5,2577.8,"11SingleNamingACTION"
"3928",11,"plane","ACTION","fly",13,"SingleNaming",1,7.22918639148029,"Younger","Single",1,0.5,-0.5,1379.1,"11SingleNamingACTION"
"4207",11,"cake","ACTION","bake",14,"SingleNaming",1,7.50246238672883,"Younger","Single",1,0.5,-0.5,1812.5,"11SingleNamingACTION"
"4470",11,"ladder","ACTION","climb",15,"SingleNaming",1,7.13185836979105,"Younger","Single",1,0.5,-0.5,1251.2,"11SingleNamingACTION"
"4718",11,"knife","ACTION","cut",16,"SingleNaming",1,7.71145945010673,"Younger","Single",1,0.5,-0.5,2233.8,"11SingleNamingACTION"
"4992",11,"soap","ACTION","wash",17,"SingleNaming",1,6.94138345996212,"Younger","Single",1,0.5,-0.5,1034.2,"11SingleNamingACTION"
"5272",11,"newspaper","ACTION","read",18,"SingleNaming",1,6.87274966978332,"Younger","Single",1,0.5,-0.5,965.6,"11SingleNamingACTION"
"5549",11,"brain","ACTION","think",19,"SingleNaming",1,6.69542802010178,"Younger","Single",1,0.5,-0.5,808.7,"11SingleNamingACTION"
"5825",11,"trophy","ACTION","win",20,"SingleNaming",1,7.12897698473365,"Younger","Single",1,0.5,-0.5,1247.6,"11SingleNamingACTION"
"6089",11,"knife","ACTION","cut",21,"SingleNaming",1,6.88673591175806,"Younger","Single",1,0.5,-0.5,979.2,"11SingleNamingACTION"
"6370",11,"strawberry","ACTION","eat",22,"SingleNaming",1,6.86265330506972,"Younger","Single",1,0.5,-0.5,955.9,"11SingleNamingACTION"
"6640",11,"cup","ACTION","drink",23,"SingleNaming",1,6.94456925210485,"Younger","Single",1,0.5,-0.5,1037.5,"11SingleNamingACTION"
"6922",11,"brain","ACTION","think",24,"SingleNaming",1,6.72635329924757,"Younger","Single",1,0.5,-0.5,834.1,"11SingleNamingACTION"
"7206",11,"eye","ACTION","see",25,"SingleNaming",1,7.15336457501201,"Younger","Single",1,0.5,-0.5,1278.4,"11SingleNamingACTION"
"7485",11,"ladder","ACTION","climb",26,"SingleNaming",1,6.76006700608253,"Younger","Single",1,0.5,-0.5,862.7,"11SingleNamingACTION"
"7766",11,"suitcase","ACTION","pack",27,"SingleNaming",1,7.30310270890202,"Younger","Single",1,0.5,-0.5,1484.9,"11SingleNamingACTION"
"8044",11,"teeth","ACTION","brush",28,"SingleNaming",1,7.43372564007458,"Younger","Single",1,0.5,-0.5,1692.1,"11SingleNamingACTION"
"8315",11,"pen","ACTION","write",29,"SingleNaming",1,7.56667326799142,"Younger","Single",1,0.5,-0.5,1932.7,"11SingleNamingACTION"
"8591",11,"toy","ACTION","play",30,"SingleNaming",1,6.72311102681854,"Younger","Single",1,0.5,-0.5,831.4,"11SingleNamingACTION"
"8868",11,"horse","ACTION","ride",31,"SingleNaming",1,6.90485106583475,"Younger","Single",1,0.5,-0.5,997.1,"11SingleNamingACTION"
